id	year	month	day	hour	minute	sex	age	handedness	message_viewing_time	block	trial_num	trial_initiation_time	fixation_duration	cue_modality	cue_location	target_location	target_modality	target_response_key	target_response_rt	feedback_response	recalibration	blink	saccade
p05	2015	06	09	10	51	f	21	r	455.580452661	practice	1	4.18331854499	1.0757819473	tactile	right	right	visual	NA	733.886977425	FALSE	FALSE	FALSE	FALSE
p05	2015	06	09	10	51	f	21	r	455.580452661	practice	2	1.14758702205	1.4616193276	visual	left	left	visual	voice	NA	FALSE	FALSE	FALSE	FALSE
p05	2015	06	09	10	51	f	21	r	455.580452661	practice	3	3.74064431002	1.43652536775	tactile	left	left	tactice	voice	NA	FALSE	FALSE	FALSE	FALSE
p05	2015	06	09	10	51	f	21	r	455.580452661	practice	4	3.75525472197	0.816571512905	visual	right	right	visual	NA	811.941154767	FALSE	FALSE	FALSE	FALSE
p05	2015	06	09	10	51	f	21	r	455.580452661	practice	5	1.23876062594	1.01254305937	tactile	left	left	tactice	NA	833.848046372	FALSE	FALSE	FALSE	FALSE
p05	2015	06	09	10	51	f	21	r	455.580452661	practice	6	0.934485284961	1.15585643789	tactile	right	right	tactice	NA	NA	FALSE	FALSE	FALSE	FALSE
p05	2015	06	09	10	51	f	21	r	455.580452661	practice	7	0.749221159029	1.01661610859	tactile	right	right	tactice	voice	NA	FALSE	FALSE	FALSE	FALSE
p05	2015	06	09	10	51	f	21	r	455.580452661	practice	8	1.47920838196	1.09765795874	tactile	right	right	visual	NA	616.674071993	FALSE	FALSE	FALSE	FALSE
p05	2015	06	09	10	51	f	21	r	455.580452661	practice	9	1.04446934792	1.16183029429	visual	left	left	visual	NA	577.466922347	FALSE	FALSE	FALSE	FALSE
p05	2015	06	09	10	51	f	21	r	455.580452661	practice	10	0.698841777979	0.887560503191	visual	right	right	visual	NA	NA	FALSE	FALSE	FALSE	FALSE
p05	2015	06	09	10	51	f	21	r	455.580452661	practice	11	0.804689991986	1.12328358637	tactile	left	right	visual	NA	402.722827392	FALSE	FALSE	FALSE	FALSE
p05	2015	06	09	10	51	f	21	r	455.580452661	practice	12	0.833993011969	0.73845852089	visual	right	right	tactice	NA	366.695924895	FALSE	FALSE	FALSE	FALSE
p05	2015	06	09	10	51	f	21	r	455.580452661	practice	13	0.661133983987	1.36188279855	visual	left	catch	visual	NA	NA	FALSE	FALSE	FALSE	FALSE
p05	2015	06	09	10	51	f	21	r	455.580452661	practice	14	0.640222796937	1.02285313359	tactile	left	left	tactice	NA	538.851559046	FALSE	FALSE	FALSE	TRUE
p05	2015	06	09	10	51	f	21	r	455.580452661	practice	15	0.706349575077	1.07689035107	tactile	left	right	tactice	NA	482.920445735	FALSE	FALSE	FALSE	FALSE
p05	2015	06	09	10	51	f	21	r	455.580452661	practice	16	0.556204419001	1.16979131795	visual	right	left	visual	NA	453.884782735	FALSE	FALSE	FALSE	FALSE
p05	2015	06	09	10	51	f	21	r	455.580452661	practice	17	0.55181341304	1.42210805996	tactile	right	left	visual	NA	363.858266734	FALSE	FALSE	FALSE	FALSE
p05	2015	06	09	10	51	f	21	r	455.580452661	practice	18	0.461530876928	1.4876769764	visual	right	right	tactice	NA	390.03214729	FALSE	FALSE	FALSE	FALSE
p05	2015	06	09	10	51	f	21	r	455.580452661	practice	19	0.501080241986	0.667098639034	tactile	left	right	visual	NA	NA	FALSE	FALSE	FALSE	FALSE
p05	2015	06	09	10	51	f	21	r	455.580452661	practice	20	0.935562251019	0.542677106074	visual	left	left	visual	NA	626.876792638	FALSE	FALSE	FALSE	FALSE
p05	2015	06	09	10	51	f	21	r	455.580452661	practice	21	0.71624643798	0.788524643157	tactile	right	catch	visual	NA	NA	FALSE	FALSE	FALSE	FALSE
p05	2015	06	09	10	51	f	21	r	455.580452661	practice	22	0.760450794012	1.00091201038	tactile	left	right	visual	NA	419.449510286	FALSE	FALSE	FALSE	FALSE
p05	2015	06	09	10	51	f	21	r	455.580452661	practice	23	0.592201502994	1.00118294073	tactile	left	catch	visual	NA	NA	FALSE	FALSE	FALSE	TRUE
p05	2015	06	09	10	51	f	21	r	455.580452661	practice	24	0.915573959006	0.656523710127	tactile	right	right	tactice	NA	581.629236578	FALSE	FALSE	FALSE	FALSE
p05	2015	06	09	10	51	f	21	r	455.580452661	practice	25	0.700722655049	0.586966222019	tactile	left	right	tactice	NA	484.947051737	FALSE	FALSE	FALSE	FALSE
p05	2015	06	09	10	51	f	21	r	455.580452661	practice	26	0.638374175993	0.51859485271	visual	right	left	visual	NA	435.768952942	FALSE	FALSE	FALSE	FALSE
p05	2015	06	09	10	51	f	21	r	455.580452661	practice	27	0.592168989009	0.637502734404	visual	right	catch	visual	NA	NA	FALSE	FALSE	FALSE	FALSE
p05	2015	06	09	10	51	f	21	r	455.580452661	practice	28	0.543466532952	1.4024292115	visual	left	right	visual	NA	596.734553226	FALSE	FALSE	FALSE	FALSE
p05	2015	06	09	10	51	f	21	r	455.580452661	practice	29	0.580648915959	0.762490953004	visual	left	left	tactice	NA	404.310568701	FALSE	FALSE	FALSE	FALSE
p05	2015	06	09	10	51	f	21	r	455.580452661	practice	30	0.471115374006	1.04269623293	visual	right	left	tactice	NA	409.07579381	FALSE	FALSE	FALSE	FALSE
p05	2015	06	09	10	51	f	21	r	455.580452661	practice	31	0.469705402968	0.795654448065	visual	left	left	visual	NA	627.331837662	FALSE	FALSE	FALSE	FALSE
p05	2015	06	09	10	51	f	21	r	455.580452661	practice	32	0.445381056983	1.01382138124	tactile	right	right	visual	NA	NA	FALSE	FALSE	FALSE	FALSE
p05	2015	06	09	10	51	f	21	r	455.580452661	practice	33	0.773608802003	1.19983971933	tactile	right	right	tactice	NA	537.13771631	FALSE	FALSE	FALSE	FALSE
p05	2015	06	09	10	51	f	21	r	455.580452661	practice	34	0.509011468035	0.887931535723	visual	right	left	visual	NA	458.840725943	FALSE	FALSE	FALSE	FALSE
p05	2015	06	09	10	51	f	21	r	455.580452661	practice	35	0.498520453926	1.11636623545	tactile	left	left	visual	NA	468.675460317	FALSE	FALSE	FALSE	FALSE
p05	2015	06	09	10	51	f	21	r	455.580452661	practice	36	0.419759874931	0.894395944942	visual	left	right	tactice	NA	364.67862688	FALSE	FALSE	FALSE	TRUE
p05	2015	06	09	10	51	f	21	r	455.580452661	practice	37	0.404499261989	1.23271420424	tactile	left	right	tactice	NA	495.331855491	FALSE	FALSE	FALSE	FALSE
p05	2015	06	09	10	51	f	21	r	455.580452661	practice	38	0.427495941054	0.895542292295	tactile	right	left	tactice	NA	399.462130503	FALSE	FALSE	FALSE	TRUE
p05	2015	06	09	10	51	f	21	r	455.580452661	practice	39	0.437976061017	0.905783019606	tactile	right	right	visual	NA	450.207753107	FALSE	FALSE	FALSE	TRUE
p05	2015	06	09	10	51	f	21	r	455.580452661	practice	40	0.404375187005	1.15793719259	visual	left	right	visual	NA	405.384012149	FALSE	FALSE	FALSE	FALSE
p05	2015	06	09	10	51	f	21	r	44.793091625	1	1	1.30825357698	0.863028818366	tactile	left	right	tactice	NA	346.301325248	FALSE	FALSE	FALSE	FALSE
p05	2015	06	09	10	51	f	21	r	44.793091625	1	2	0.55537310103	1.49806717972	tactile	right	right	visual	NA	553.578471998	FALSE	FALSE	FALSE	TRUE
p05	2015	06	09	10	51	f	21	r	44.793091625	1	3	0.420477751992	0.84200629003	visual	right	left	tactice	NA	307.778579765	FALSE	FALSE	FALSE	FALSE
p05	2015	06	09	10	51	f	21	r	44.793091625	1	4	0.415416028933	0.837659902379	tactile	right	right	tactice	NA	513.476396329	FALSE	FALSE	FALSE	TRUE
p05	2015	06	09	10	51	f	21	r	44.793091625	1	5	0.402308156015	0.541585516152	visual	right	left	visual	NA	483.22934052	FALSE	FALSE	FALSE	TRUE
p05	2015	06	09	10	51	f	21	r	44.793091625	1	6	0.419207991916	1.24338963324	visual	right	right	visual	NA	570.911214454	FALSE	FALSE	FALSE	FALSE
p05	2015	06	09	10	51	f	21	r	44.793091625	1	7	0.398141508922	1.17313026612	visual	left	left	tactice	NA	348.260766594	FALSE	FALSE	FALSE	FALSE
p05	2015	06	09	10	51	f	21	r	44.793091625	1	8	0.403773309081	0.609143527225	tactile	left	right	tactice	NA	413.477705442	FALSE	FALSE	FALSE	FALSE
p05	2015	06	09	10	51	f	21	r	44.793091625	1	9	0.402069050004	0.964335365743	tactile	right	right	visual	NA	366.364001064	FALSE	FALSE	FALSE	FALSE
p05	2015	06	09	10	51	f	21	r	44.793091625	1	10	0.40496792295	0.843154347037	visual	left	right	visual	NA	523.600881686	FALSE	FALSE	FALSE	TRUE
p05	2015	06	09	10	51	f	21	r	44.793091625	1	11	0.402532376	0.810147873542	visual	right	right	tactice	NA	325.244060135	FALSE	FALSE	FALSE	FALSE
p05	2015	06	09	10	51	f	21	r	44.793091625	1	12	1.64756487706	0.711154104364	visual	right	right	tactice	NA	331.805935479	FALSE	FALSE	FALSE	FALSE
p05	2015	06	09	10	51	f	21	r	44.793091625	1	13	0.400209852029	0.885736574209	tactile	right	left	visual	NA	333.105780534	FALSE	FALSE	FALSE	TRUE
p05	2015	06	09	10	51	f	21	r	44.793091625	1	14	1.57957828802	1.23078131954	tactile	right	right	tactice	NA	460.387517116	FALSE	FALSE	FALSE	FALSE
p05	2015	06	09	10	51	f	21	r	44.793091625	1	15	0.403509644093	0.518882806948	tactile	left	right	tactice	NA	394.57503974	FALSE	FALSE	FALSE	FALSE
p05	2015	06	09	10	51	f	21	r	44.793091625	1	16	0.42696117796	1.23101731723	tactile	right	right	visual	NA	528.882459388	FALSE	FALSE	FALSE	FALSE
p05	2015	06	09	10	51	f	21	r	44.793091625	1	17	0.395833307994	1.45726998662	tactile	right	right	visual	NA	474.363335059	FALSE	FALSE	FALSE	FALSE
p05	2015	06	09	10	51	f	21	r	44.793091625	1	18	0.39780887193	0.608922836418	tactile	left	right	visual	NA	304.88743633	FALSE	FALSE	FALSE	FALSE
p05	2015	06	09	10	51	f	21	r	44.793091625	1	19	0.413120349986	1.25190519184	tactile	right	left	tactice	NA	367.246423848	FALSE	FALSE	FALSE	FALSE
p05	2015	06	09	10	51	f	21	r	44.793091625	1	20	0.429836391006	1.3308839507	visual	right	right	visual	NA	516.159860999	FALSE	FALSE	FALSE	FALSE
p05	2015	06	09	10	51	f	21	r	44.793091625	1	21	0.41251454805	0.986252763592	visual	left	left	tactice	NA	304.161925218	FALSE	FALSE	FALSE	TRUE
p05	2015	06	09	10	51	f	21	r	44.793091625	1	22	0.395902107004	1.29314828477	visual	left	right	visual	NA	357.702205889	FALSE	FALSE	FALSE	FALSE
p05	2015	06	09	10	51	f	21	r	44.793091625	1	23	0.402978142025	1.00423228295	visual	right	catch	visual	NA	NA	FALSE	FALSE	FALSE	FALSE
p05	2015	06	09	10	51	f	21	r	44.793091625	1	24	0.765073034912	0.742547930768	tactile	right	catch	tactice	NA	NA	FALSE	FALSE	FALSE	FALSE
p05	2015	06	09	10	51	f	21	r	44.793091625	1	25	0.673303530901	1.29351740841	visual	right	right	tactice	NA	317.592527368	FALSE	FALSE	FALSE	FALSE
p05	2015	06	09	10	51	f	21	r	44.793091625	1	26	0.977036706056	1.13417956375	visual	left	right	tactice	NA	205.669980962	FALSE	FALSE	FALSE	TRUE
p05	2015	06	09	10	51	f	21	r	44.793091625	1	27	0.576975442003	1.00208283754	tactile	right	left	tactice	NA	250.945169246	FALSE	FALSE	FALSE	TRUE
p05	2015	06	09	10	51	f	21	r	44.793091625	1	28	0.400513962959	1.05688314331	tactile	left	left	visual	NA	310.408418532	FALSE	FALSE	FALSE	FALSE
p05	2015	06	09	10	51	f	21	r	44.793091625	1	29	0.394410675974	0.938771499812	tactile	right	right	visual	NA	285.80327495	FALSE	FALSE	FALSE	FALSE
p05	2015	06	09	10	51	f	21	r	44.793091625	1	30	1.62230310298	0.541144193552	tactile	left	catch	tactice	NA	NA	FALSE	FALSE	FALSE	FALSE
p05	2015	06	09	10	51	f	21	r	44.793091625	1	31	0.652532527922	1.33309733251	tactile	right	right	tactice	NA	424.681780278	FALSE	FALSE	FALSE	FALSE
p05	2015	06	09	10	51	f	21	r	44.793091625	1	32	1.84378362505	0.821664926123	tactile	left	right	visual	NA	483.164943522	FALSE	FALSE	FALSE	FALSE
p05	2015	06	09	10	51	f	21	r	44.793091625	1	33	2.39415065595	0.749534428382	visual	right	left	tactice	NA	267.727050348	FALSE	FALSE	FALSE	FALSE
p05	2015	06	09	10	51	f	21	r	44.793091625	1	34	0.506566214957	0.689392178714	visual	right	left	tactice	NA	642.714370973	FALSE	FALSE	FALSE	FALSE
p05	2015	06	09	10	51	f	21	r	44.793091625	1	35	0.54231211904	1.25426204429	visual	left	catch	visual	NA	NA	FALSE	FALSE	FALSE	FALSE
p05	2015	06	09	10	51	f	21	r	44.793091625	1	36	0.743833606015	0.699561990323	tactile	right	left	tactice	NA	178.894132376	FALSE	FALSE	FALSE	FALSE
p05	2015	06	09	10	51	f	21	r	44.793091625	1	37	0.758301228052	1.31572231282	tactile	right	left	visual	NA	NA	FALSE	FALSE	FALSE	TRUE
p05	2015	06	09	10	51	f	21	r	44.793091625	1	38	1.31874432007	1.33030478141	tactile	right	left	visual	NA	425.173083204	FALSE	FALSE	FALSE	FALSE
p05	2015	06	09	10	51	f	21	r	44.793091625	1	39	0.414639130002	1.47378717161	visual	left	catch	tactice	NA	NA	FALSE	FALSE	FALSE	TRUE
p05	2015	06	09	10	51	f	21	r	44.793091625	1	40	27.5342451071	0.649025226372	tactile	left	left	visual	NA	457.774773357	FALSE	FALSE	FALSE	FALSE
p05	2015	06	09	10	51	f	21	r	4.92024355405	1	41	0.886657736963	1.41934745799	tactile	right	right	visual	NA	332.607719698	FALSE	FALSE	FALSE	TRUE
p05	2015	06	09	10	51	f	21	r	4.92024355405	1	42	0.488202526933	1.42013421314	visual	left	right	tactice	NA	353.950217483	FALSE	FALSE	FALSE	FALSE
p05	2015	06	09	10	51	f	21	r	4.92024355405	1	43	0.39595495793	0.717476900318	tactile	right	left	tactice	NA	309.232584317	FALSE	FALSE	FALSE	FALSE
p05	2015	06	09	10	51	f	21	r	4.92024355405	1	44	0.410153524019	0.97915291793	tactile	right	right	visual	NA	318.726104684	FALSE	FALSE	FALSE	FALSE
p05	2015	06	09	10	51	f	21	r	4.92024355405	1	45	1.64091359696	1.28346774323	visual	right	left	tactice	NA	415.824561496	FALSE	FALSE	FALSE	FALSE
p05	2015	06	09	10	51	f	21	r	4.92024355405	1	46	0.402786999941	0.937854636235	tactile	right	right	tactice	NA	437.702599564	FALSE	FALSE	FALSE	FALSE
p05	2015	06	09	10	51	f	21	r	4.92024355405	1	47	0.403771761106	1.46927067331	tactile	left	left	tactice	voice	NA	FALSE	FALSE	FALSE	FALSE
p05	2015	06	09	10	51	f	21	r	4.92024355405	1	48	1.10972831899	0.949766428493	visual	right	catch	tactice	NA	NA	FALSE	FALSE	FALSE	FALSE
p05	2015	06	09	10	51	f	21	r	4.92024355405	1	49	0.83016303496	1.21825540864	visual	right	catch	visual	NA	NA	FALSE	FALSE	FALSE	FALSE
p05	2015	06	09	10	51	f	21	r	4.92024355405	1	50	0.62686170009	1.29275119106	visual	right	right	visual	NA	NA	FALSE	FALSE	FALSE	TRUE
p05	2015	06	09	10	51	f	21	r	4.92024355405	1	51	0.796240346972	1.33852818903	visual	left	left	tactice	NA	254.904874717	FALSE	FALSE	FALSE	FALSE
p05	2015	06	09	10	51	f	21	r	4.92024355405	1	52	0.456569761969	0.908977149186	visual	left	left	tactice	NA	260.436314624	FALSE	FALSE	FALSE	FALSE
p05	2015	06	09	10	51	f	21	r	4.92024355405	1	53	1.67036051303	1.28233523893	tactile	right	left	visual	NA	286.393492832	FALSE	FALSE	FALSE	FALSE
p05	2015	06	09	10	51	f	21	r	4.92024355405	1	54	0.400511989952	0.696152713677	tactile	left	left	tactice	NA	515.12615697	FALSE	FALSE	FALSE	FALSE
p05	2015	06	09	10	51	f	21	r	4.92024355405	1	55	0.396322075976	0.651120388391	tactile	right	left	tactice	NA	272.151258308	FALSE	FALSE	FALSE	FALSE
p05	2015	06	09	10	51	f	21	r	4.92024355405	1	56	0.402405344998	1.02258051365	visual	left	catch	visual	NA	NA	FALSE	FALSE	FALSE	FALSE
p05	2015	06	09	10	51	f	21	r	4.92024355405	1	57	0.635338537046	0.74883648369	visual	right	right	visual	NA	395.295277005	FALSE	FALSE	FALSE	FALSE
p05	2015	06	09	10	51	f	21	r	4.92024355405	1	58	0.410793154035	0.501740448597	tactile	right	right	visual	NA	420.262308093	FALSE	FALSE	FALSE	FALSE
p05	2015	06	09	10	51	f	21	r	4.92024355405	1	59	0.41004478198	1.03667649115	tactile	left	right	visual	voice	NA	FALSE	FALSE	FALSE	FALSE
p05	2015	06	09	10	51	f	21	r	4.92024355405	1	60	0.997659322922	0.52000230837	visual	right	right	visual	NA	458.005991299	FALSE	FALSE	FALSE	FALSE
p05	2015	06	09	10	51	f	21	r	4.92024355405	1	61	0.438010015059	1.34527003448	visual	left	left	visual	NA	418.961560237	FALSE	FALSE	FALSE	FALSE
p05	2015	06	09	10	51	f	21	r	4.92024355405	1	62	0.396325312904	1.22800547898	tactile	left	catch	tactice	NA	NA	FALSE	FALSE	FALSE	FALSE
p05	2015	06	09	10	51	f	21	r	4.92024355405	1	63	0.658531556954	0.949111396194	visual	right	right	visual	NA	313.731675502	FALSE	FALSE	FALSE	FALSE
p05	2015	06	09	10	51	f	21	r	4.92024355405	1	64	0.402540888987	1.03178396397	visual	left	left	visual	NA	453.127386747	FALSE	FALSE	FALSE	FALSE
p05	2015	06	09	10	51	f	21	r	4.92024355405	1	65	0.409693407943	1.17888362931	tactile	left	left	tactice	NA	496.416248498	FALSE	FALSE	FALSE	FALSE
p05	2015	06	09	10	51	f	21	r	4.92024355405	1	66	0.401053422014	1.11465887577	visual	left	left	visual	NA	NA	FALSE	FALSE	FALSE	FALSE
p05	2015	06	09	10	51	f	21	r	4.92024355405	1	67	0.843270523008	1.45351404795	tactile	left	left	visual	NA	288.943846826	FALSE	FALSE	FALSE	FALSE
p05	2015	06	09	10	51	f	21	r	4.92024355405	1	68	0.437005574	0.584490729475	tactile	right	left	tactice	NA	425.641354173	FALSE	FALSE	FALSE	FALSE
p05	2015	06	09	10	51	f	21	r	4.92024355405	1	69	0.406602739007	0.880099694389	visual	right	right	tactice	NA	370.401652297	FALSE	FALSE	FALSE	FALSE
p05	2015	06	09	10	51	f	21	r	4.92024355405	1	70	0.398387539084	1.22945025841	visual	left	right	tactice	NA	270.753029268	FALSE	FALSE	FALSE	FALSE
p05	2015	06	09	10	51	f	21	r	4.92024355405	1	71	0.399833500036	1.06627402287	tactile	left	right	tactice	NA	237.032778794	FALSE	FALSE	FALSE	TRUE
p05	2015	06	09	10	51	f	21	r	4.92024355405	1	72	0.402686403017	0.688895908313	visual	right	right	visual	NA	495.934772422	FALSE	FALSE	FALSE	FALSE
p05	2015	06	09	10	51	f	21	r	4.92024355405	1	73	0.395633312059	1.01013419075	tactile	left	right	tactice	NA	92.6108108833	FALSE	FALSE	FALSE	FALSE
p05	2015	06	09	10	51	f	21	r	4.92024355405	1	74	0.397122220951	1.32216098343	tactile	right	left	visual	NA	452.120857313	FALSE	FALSE	FALSE	FALSE
p05	2015	06	09	10	51	f	21	r	4.92024355405	1	75	2.11925251596	0.585464354917	visual	right	left	visual	NA	403.773881728	FALSE	FALSE	FALSE	FALSE
p05	2015	06	09	10	51	f	21	r	4.92024355405	1	76	1.91106145503	1.17793499099	visual	left	right	tactice	NA	276.861447841	FALSE	FALSE	FALSE	FALSE
p05	2015	06	09	10	51	f	21	r	4.92024355405	1	77	1.81383111095	0.759779980486	tactile	left	left	visual	NA	279.240962234	FALSE	FALSE	FALSE	FALSE
p05	2015	06	09	10	51	f	21	r	4.92024355405	1	78	1.83088537899	1.15120499648	tactile	right	catch	visual	NA	NA	FALSE	FALSE	FALSE	TRUE
p05	2015	06	09	10	51	f	21	r	4.92024355405	1	79	0.734125694027	0.707794201979	tactile	left	left	tactice	NA	443.199001718	FALSE	FALSE	FALSE	FALSE
p05	2015	06	09	10	51	f	21	r	4.92024355405	1	80	0.534773887019	0.570723114088	visual	right	left	tactice	NA	273.147955653	FALSE	FALSE	FALSE	FALSE
p05	2015	06	09	10	51	f	21	r	4.62099483609	1	81	0.920255017001	1.33251288288	visual	left	left	visual	NA	464.568033814	FALSE	FALSE	FALSE	FALSE
p05	2015	06	09	10	51	f	21	r	4.62099483609	1	82	0.449705022969	1.10184240896	visual	right	catch	tactice	NA	NA	FALSE	FALSE	FALSE	FALSE
p05	2015	06	09	10	51	f	21	r	4.62099483609	1	83	0.744193776976	1.10249548617	visual	right	left	visual	NA	380.550618633	FALSE	FALSE	FALSE	FALSE
p05	2015	06	09	10	51	f	21	r	4.62099483609	1	84	0.417182408972	0.908205587092	tactile	left	right	visual	NA	308.991066646	FALSE	FALSE	FALSE	FALSE
p05	2015	06	09	10	51	f	21	r	4.62099483609	1	85	0.394947603927	0.952481503592	tactile	right	left	tactice	NA	277.759194141	FALSE	FALSE	FALSE	FALSE
p05	2015	06	09	10	51	f	21	r	4.62099483609	1	86	0.401045707986	0.541892747779	tactile	left	catch	visual	NA	NA	FALSE	FALSE	FALSE	FALSE
p05	2015	06	09	10	51	f	21	r	4.62099483609	1	87	0.656912563951	0.945823262408	tactile	left	left	visual	NA	343.070174335	FALSE	FALSE	FALSE	FALSE
p05	2015	06	09	10	51	f	21	r	4.62099483609	1	88	0.392788600991	0.945993636198	tactile	left	right	tactice	NA	307.507230551	FALSE	FALSE	FALSE	FALSE
p05	2015	06	09	10	51	f	21	r	4.62099483609	1	89	1.79788866709	1.02641532959	visual	left	right	visual	NA	300.724616274	FALSE	FALSE	FALSE	FALSE
p05	2015	06	09	10	51	f	21	r	4.62099483609	1	90	2.08873098402	1.34170708646	tactile	left	left	tactice	voice	NA	FALSE	FALSE	FALSE	FALSE
p05	2015	06	09	10	51	f	21	r	4.62099483609	1	91	1.28639809601	0.852435529311	tactile	right	left	visual	NA	509.067226318	FALSE	FALSE	FALSE	FALSE
p05	2015	06	09	10	51	f	21	r	4.62099483609	1	92	0.437240181025	1.00269239142	visual	left	right	tactice	NA	244.307732326	FALSE	FALSE	FALSE	FALSE
p05	2015	06	09	10	51	f	21	r	4.62099483609	1	93	0.399259904982	0.600350467512	visual	right	left	visual	NA	437.498669256	FALSE	FALSE	FALSE	FALSE
p05	2015	06	09	10	51	f	21	r	4.62099483609	1	94	0.395236048964	0.564733439721	tactile	right	catch	tactice	NA	NA	FALSE	FALSE	FALSE	TRUE
p05	2015	06	09	10	51	f	21	r	4.62099483609	1	95	0.566213574959	0.741442735345	tactile	right	right	tactice	NA	392.033257405	FALSE	FALSE	FALSE	FALSE
p05	2015	06	09	10	51	f	21	r	4.62099483609	1	96	0.400491081993	0.658492765933	tactile	left	left	tactice	NA	471.843083738	FALSE	FALSE	FALSE	FALSE
p05	2015	06	09	10	51	f	21	r	4.62099483609	1	97	0.396960588987	0.63145760314	visual	left	left	tactice	NA	430.319200619	FALSE	FALSE	FALSE	FALSE
p05	2015	06	09	10	51	f	21	r	4.62099483609	1	98	1.60109439807	0.921544208079	visual	right	left	tactice	NA	298.172704643	FALSE	FALSE	FALSE	FALSE
p05	2015	06	09	10	51	f	21	r	4.62099483609	1	99	0.405395367998	1.24201889874	visual	left	right	tactice	NA	170.890495065	FALSE	FALSE	FALSE	FALSE
p05	2015	06	09	10	51	f	21	r	4.62099483609	1	100	1.64053899096	0.83329313131	visual	right	right	tactice	voice	NA	FALSE	FALSE	FALSE	FALSE
p05	2015	06	09	10	51	f	21	r	4.62099483609	1	101	1.01640056795	1.17077522189	tactile	right	right	visual	NA	539.385279873	FALSE	FALSE	FALSE	FALSE
p05	2015	06	09	10	51	f	21	r	4.62099483609	1	102	0.404310003039	0.821847598167	visual	left	left	visual	NA	560.96017058	FALSE	FALSE	FALSE	FALSE
p05	2015	06	09	10	51	f	21	r	4.62099483609	1	103	1.821992649	1.10904720865	visual	right	right	tactice	NA	412.35773114	FALSE	FALSE	FALSE	FALSE
p05	2015	06	09	10	51	f	21	r	4.62099483609	1	104	0.544287602999	0.652604180617	visual	right	left	visual	NA	336.466936162	FALSE	FALSE	FALSE	FALSE
p05	2015	06	09	10	51	f	21	r	4.62099483609	1	105	0.581478994922	0.675589564697	visual	right	right	tactice	NA	138.546956005	FALSE	FALSE	FALSE	FALSE
p05	2015	06	09	10	51	f	21	r	4.62099483609	1	106	0.628054175992	0.727066933129	visual	right	left	visual	NA	284.734781599	FALSE	FALSE	FALSE	TRUE
p05	2015	06	09	10	51	f	21	r	4.62099483609	1	107	0.526610456058	1.34773312508	visual	left	right	visual	voice	NA	FALSE	FALSE	FALSE	FALSE
p05	2015	06	09	10	51	f	21	r	4.62099483609	1	108	1.14465145895	0.822858504364	visual	left	left	visual	NA	410.629225313	FALSE	FALSE	FALSE	FALSE
p05	2015	06	09	10	51	f	21	r	4.62099483609	1	109	0.603274626075	1.01630145964	visual	left	right	tactice	NA	NA	FALSE	FALSE	FALSE	FALSE
p05	2015	06	09	10	51	f	21	r	4.62099483609	1	110	0.755664707976	0.583281571178	tactile	left	left	visual	NA	543.504741509	FALSE	FALSE	FALSE	TRUE
p05	2015	06	09	10	51	f	21	r	4.62099483609	1	111	4.13835252298	0.668361816883	tactile	left	left	visual	NA	317.643235787	FALSE	FALSE	FALSE	TRUE
p05	2015	06	09	10	51	f	21	r	4.62099483609	1	112	0.768723085988	1.104631308	visual	left	catch	tactice	NA	NA	FALSE	FALSE	FALSE	TRUE
p05	2015	06	09	10	51	f	21	r	4.62099483609	1	113	11.463141881	1.39603551844	tactile	right	left	tactice	NA	275.327350246	FALSE	FALSE	FALSE	FALSE
p05	2015	06	09	10	51	f	21	r	4.62099483609	1	114	0.645229047979	1.37512346697	tactile	left	left	tactice	NA	500.634334865	FALSE	FALSE	FALSE	FALSE
p05	2015	06	09	10	51	f	21	r	4.62099483609	1	115	0.452392994077	1.39617165983	visual	left	left	visual	NA	521.939894883	FALSE	FALSE	FALSE	TRUE
p05	2015	06	09	10	51	f	21	r	4.62099483609	1	116	0.405742828036	1.07071385675	tactile	right	right	tactice	NA	283.638552064	FALSE	FALSE	FALSE	FALSE
p05	2015	06	09	10	51	f	21	r	4.62099483609	1	117	0.492783476016	1.03823867219	tactile	right	left	visual	NA	253.821482533	FALSE	FALSE	FALSE	FALSE
p05	2015	06	09	10	51	f	21	r	4.62099483609	1	118	0.453125978005	1.36704922144	tactile	right	right	tactice	NA	516.865983256	FALSE	FALSE	FALSE	FALSE
p05	2015	06	09	10	51	f	21	r	4.62099483609	1	119	0.417159604025	1.042495462	visual	right	left	visual	NA	290.546613745	FALSE	FALSE	FALSE	FALSE
p05	2015	06	09	10	51	f	21	r	4.62099483609	1	120	0.445917026955	0.61792167684	visual	right	right	visual	NA	622.417276842	FALSE	FALSE	FALSE	FALSE
p05	2015	06	09	10	51	f	21	r	4.34198696003	1	121	1.09101049101	0.672910914393	tactile	right	left	visual	NA	42.3509583343	FALSE	FALSE	FALSE	FALSE
p05	2015	06	09	10	51	f	21	r	4.34198696003	1	122	0.564042333979	0.979188864247	visual	left	right	tactice	NA	36.5596994525	FALSE	FALSE	FALSE	FALSE
p05	2015	06	09	10	51	f	21	r	4.34198696003	1	123	0.510566513054	1.13334219165	tactile	right	catch	visual	NA	NA	FALSE	FALSE	FALSE	FALSE
p05	2015	06	09	10	51	f	21	r	4.34198696003	1	124	0.763113624067	0.832160699997	visual	right	left	tactice	NA	205.827591824	FALSE	FALSE	FALSE	FALSE
p05	2015	06	09	10	51	f	21	r	4.34198696003	1	125	0.458593335934	1.15787150445	tactile	left	left	tactice	NA	406.567254337	FALSE	FALSE	FALSE	FALSE
p05	2015	06	09	10	51	f	21	r	4.34198696003	1	126	0.448701089015	0.832298629881	visual	right	left	visual	NA	386.800210807	FALSE	FALSE	FALSE	TRUE
p05	2015	06	09	10	51	f	21	r	4.34198696003	1	127	0.443567994051	1.2686761608	visual	left	left	tactice	NA	232.99641686	FALSE	FALSE	FALSE	FALSE
p05	2015	06	09	10	51	f	21	r	4.34198696003	1	128	0.399930596934	0.901690481442	visual	left	right	visual	NA	277.887418284	FALSE	FALSE	FALSE	FALSE
p05	2015	06	09	10	51	f	21	r	4.34198696003	1	129	0.399961248972	0.660600353357	tactile	left	right	visual	NA	407.860077335	FALSE	FALSE	FALSE	FALSE
p05	2015	06	09	10	51	f	21	r	4.34198696003	1	130	0.39859744499	1.1429385929	visual	left	right	visual	NA	NA	FALSE	FALSE	FALSE	FALSE
p05	2015	06	09	10	51	f	21	r	4.34198696003	1	131	0.963508647983	1.16912479757	tactile	right	right	tactice	NA	266.490845126	FALSE	FALSE	FALSE	FALSE
p05	2015	06	09	10	51	f	21	r	4.34198696003	1	132	0.466071665986	1.13466116967	visual	right	right	tactice	NA	225.566777983	FALSE	FALSE	FALSE	FALSE
p05	2015	06	09	10	51	f	21	r	4.34198696003	1	133	0.396479847957	1.31847716707	visual	right	right	tactice	NA	33.277901588	FALSE	FALSE	FALSE	FALSE
p05	2015	06	09	10	51	f	21	r	4.34198696003	1	134	0.400492388988	1.38725634276	visual	left	left	tactice	NA	239.249813952	FALSE	FALSE	FALSE	FALSE
p05	2015	06	09	10	51	f	21	r	4.34198696003	1	135	2.08703192603	0.731029580291	visual	right	left	visual	NA	387.738935417	FALSE	FALSE	FALSE	FALSE
p05	2015	06	09	10	51	f	21	r	4.34198696003	1	136	0.40267831902	0.577959142209	tactile	left	catch	visual	NA	NA	FALSE	FALSE	FALSE	FALSE
p05	2015	06	09	10	51	f	21	r	4.34198696003	1	137	1.23551954108	1.06263255011	tactile	right	left	visual	NA	64.2902755644	FALSE	FALSE	FALSE	FALSE
p05	2015	06	09	10	51	f	21	r	4.34198696003	1	138	2.71953603299	1.3062457755	tactile	left	left	tactice	NA	31.3053411664	FALSE	FALSE	FALSE	FALSE
p05	2015	06	09	10	51	f	21	r	4.34198696003	1	139	0.518513754942	1.35692296597	tactile	left	right	visual	NA	518.170887721	FALSE	FALSE	FALSE	FALSE
p05	2015	06	09	10	51	f	21	r	4.34198696003	1	140	0.467017153976	0.752966822915	visual	left	right	visual	NA	496.534984792	FALSE	FALSE	FALSE	FALSE
p05	2015	06	09	10	51	f	21	r	4.34198696003	1	141	0.405036826967	1.34364558468	tactile	left	right	visual	NA	513.504871051	FALSE	FALSE	FALSE	FALSE
p05	2015	06	09	10	51	f	21	r	4.34198696003	1	142	0.415389064001	1.46753617147	tactile	left	right	tactice	NA	NA	FALSE	FALSE	FALSE	FALSE
p05	2015	06	09	10	51	f	21	r	4.34198696003	1	143	0.837633918971	0.756178922051	tactile	left	right	visual	NA	73.6231408082	FALSE	FALSE	FALSE	FALSE
p05	2015	06	09	10	51	f	21	r	4.34198696003	1	144	0.62117471802	0.737057161518	visual	right	left	tactice	NA	268.735274207	FALSE	FALSE	FALSE	FALSE
p05	2015	06	09	10	51	f	21	r	4.34198696003	1	145	0.430367241963	1.08464084242	tactile	right	left	tactice	NA	241.225142381	FALSE	FALSE	FALSE	FALSE
p05	2015	06	09	10	51	f	21	r	4.34198696003	1	146	0.400728279958	0.638038665096	visual	left	right	visual	NA	237.279065652	FALSE	FALSE	FALSE	FALSE
p05	2015	06	09	10	51	f	21	r	4.34198696003	1	147	0.399706590921	0.562490365791	visual	right	left	tactice	NA	261.055377894	FALSE	FALSE	FALSE	FALSE
p05	2015	06	09	10	51	f	21	r	4.34198696003	1	148	0.401747223921	1.25224311688	visual	left	right	tactice	voice	NA	FALSE	FALSE	FALSE	FALSE
p05	2015	06	09	10	51	f	21	r	4.34198696003	1	149	0.914467402035	0.821723291737	tactile	left	left	visual	NA	473.248668946	FALSE	FALSE	FALSE	FALSE
p05	2015	06	09	10	51	f	21	r	4.34198696003	1	150	0.40596361598	0.764167444858	visual	left	left	visual	NA	452.955174842	FALSE	FALSE	FALSE	FALSE
p05	2015	06	09	10	51	f	21	r	4.34198696003	1	151	1.69236863009	0.50569495764	visual	right	right	visual	NA	414.01346901	FALSE	FALSE	FALSE	FALSE
p05	2015	06	09	10	51	f	21	r	4.34198696003	1	152	0.405162159936	0.990717699542	visual	left	left	visual	NA	99.4232002413	FALSE	FALSE	FALSE	FALSE
p05	2015	06	09	10	51	f	21	r	4.34198696003	1	153	0.399612825946	0.927565197058	tactile	left	left	visual	NA	424.255467602	FALSE	FALSE	FALSE	FALSE
p05	2015	06	09	10	51	f	21	r	4.34198696003	1	154	0.394278479973	0.548485103124	tactile	left	right	tactice	NA	279.716569581	FALSE	FALSE	FALSE	FALSE
p05	2015	06	09	10	51	f	21	r	4.34198696003	1	155	0.411724840989	0.995573067487	tactile	left	right	tactice	NA	276.34649619	FALSE	FALSE	FALSE	FALSE
p05	2015	06	09	10	51	f	21	r	4.34198696003	1	156	0.411072294926	0.890300688062	visual	left	left	tactice	NA	236.799919629	FALSE	FALSE	FALSE	FALSE
p05	2015	06	09	10	51	f	21	r	4.34198696003	1	157	0.395241966005	0.561604065788	visual	left	right	visual	NA	309.850276913	FALSE	FALSE	FALSE	FALSE
p05	2015	06	09	10	51	f	21	r	4.34198696003	1	158	0.413016434992	0.771198948115	visual	left	left	tactice	NA	149.949057493	FALSE	FALSE	FALSE	FALSE
p05	2015	06	09	10	51	f	21	r	4.34198696003	1	159	0.401256923098	1.45717388864	tactile	left	right	visual	NA	175.925736083	FALSE	FALSE	FALSE	FALSE
p05	2015	06	09	10	51	f	21	r	4.34198696003	1	160	1.52547827899	1.16515111201	tactile	right	right	tactice	NA	262.161273742	FALSE	FALSE	FALSE	FALSE
p05	2015	06	09	10	51	f	21	r	54.799952911	2	1	0.95655451098	1.2054145552	tactile	left	left	tactice	NA	232.287834515	FALSE	FALSE	FALSE	FALSE
p05	2015	06	09	10	51	f	21	r	54.799952911	2	2	0.434770496096	0.811615893933	tactile	right	right	visual	NA	69.5463897428	FALSE	FALSE	FALSE	FALSE
p05	2015	06	09	10	51	f	21	r	54.799952911	2	3	0.406420715968	1.12023975079	tactile	left	right	visual	NA	688.634911901	FALSE	FALSE	FALSE	TRUE
p05	2015	06	09	10	51	f	21	r	54.799952911	2	4	0.39948169596	1.13745915316	visual	left	left	tactice	NA	230.853978544	FALSE	FALSE	FALSE	TRUE
p05	2015	06	09	10	51	f	21	r	54.799952911	2	5	0.399986805045	1.47193332456	visual	left	right	visual	NA	54.5150061371	FALSE	FALSE	FALSE	FALSE
p05	2015	06	09	10	51	f	21	r	54.799952911	2	6	0.395775776007	1.01075981933	visual	left	right	tactice	NA	207.223953446	FALSE	FALSE	FALSE	FALSE
p05	2015	06	09	10	51	f	21	r	54.799952911	2	7	0.394420478959	1.31502900702	tactile	right	catch	tactice	NA	NA	FALSE	FALSE	FALSE	FALSE
p05	2015	06	09	10	51	f	21	r	54.799952911	2	8	0.742317977943	0.921115803351	tactile	left	left	tactice	voice	NA	FALSE	FALSE	FALSE	FALSE
p05	2015	06	09	10	51	f	21	r	54.799952911	2	9	0.926325023058	1.01854016617	tactile	left	right	tactice	NA	323.264901526	FALSE	FALSE	FALSE	TRUE
p05	2015	06	09	10	51	f	21	r	54.799952911	2	10	0.476497908006	1.47585298308	tactile	left	right	visual	NA	273.836508626	FALSE	FALSE	FALSE	FALSE
p05	2015	06	09	10	51	f	21	r	54.799952911	2	11	0.408751143957	1.26104165398	tactile	left	catch	tactice	NA	78.001585789	FALSE	FALSE	FALSE	FALSE
p05	2015	06	09	10	51	f	21	r	54.799952911	2	12	0.570490904036	0.694072176059	visual	right	left	visual	NA	278.328125714	FALSE	FALSE	FALSE	FALSE
p05	2015	06	09	10	51	f	21	r	54.799952911	2	13	0.441295685014	0.605958877786	tactile	right	right	visual	NA	373.708591913	FALSE	FALSE	FALSE	FALSE
p05	2015	06	09	10	51	f	21	r	54.799952911	2	14	0.403222668916	0.962241958685	visual	left	right	visual	NA	42.4351709662	FALSE	FALSE	FALSE	FALSE
p05	2015	06	09	10	51	f	21	r	54.799952911	2	15	0.473272471922	1.16787070134	tactile	right	left	tactice	NA	374.898782466	FALSE	FALSE	FALSE	FALSE
p05	2015	06	09	10	51	f	21	r	54.799952911	2	16	0.40370902908	1.46749256439	visual	left	right	visual	NA	309.917986393	FALSE	FALSE	FALSE	FALSE
p05	2015	06	09	10	51	f	21	r	54.799952911	2	17	0.406118551036	0.924267505469	tactile	left	right	visual	NA	299.136345275	FALSE	FALSE	FALSE	TRUE
p05	2015	06	09	10	51	f	21	r	54.799952911	2	18	0.407000087085	0.667315692901	visual	right	catch	visual	NA	272.701554932	FALSE	FALSE	FALSE	FALSE
p05	2015	06	09	10	51	f	21	r	54.799952911	2	19	0.439829723909	1.25577263675	visual	right	right	visual	NA	208.459257032	FALSE	FALSE	FALSE	FALSE
p05	2015	06	09	10	51	f	21	r	54.799952911	2	20	0.420774810947	1.01177210048	visual	right	left	tactice	NA	246.290573152	FALSE	FALSE	FALSE	FALSE
p05	2015	06	09	10	51	f	21	r	54.799952911	2	21	0.408512568916	0.864516085191	tactile	right	left	visual	NA	309.903425514	FALSE	FALSE	FALSE	FALSE
p05	2015	06	09	10	51	f	21	r	54.799952911	2	22	0.402431242983	1.45457343656	tactile	right	left	tactice	NA	222.974037169	FALSE	FALSE	FALSE	FALSE
p05	2015	06	09	10	51	f	21	r	54.799952911	2	23	0.400804935955	1.48595813608	tactile	left	right	tactice	NA	14.8514086613	FALSE	FALSE	FALSE	FALSE
p05	2015	06	09	10	51	f	21	r	54.799952911	2	24	0.420236645965	1.47658718814	tactile	right	left	visual	NA	505.440884619	FALSE	FALSE	FALSE	FALSE
p05	2015	06	09	10	51	f	21	r	54.799952911	2	25	0.400978556019	0.774269118132	visual	right	right	tactice	NA	261.946300627	FALSE	FALSE	FALSE	FALSE
p05	2015	06	09	10	51	f	21	r	54.799952911	2	26	1.67413396994	1.4594023307	tactile	right	right	visual	NA	67.5543451216	FALSE	FALSE	FALSE	FALSE
p05	2015	06	09	10	51	f	21	r	54.799952911	2	27	0.400932995952	1.09789100897	visual	right	left	visual	NA	273.98308483	FALSE	FALSE	FALSE	FALSE
p05	2015	06	09	10	51	f	21	r	54.799952911	2	28	1.60968060303	0.706028488411	tactile	right	left	visual	NA	241.661642212	FALSE	FALSE	FALSE	FALSE
p05	2015	06	09	10	51	f	21	r	54.799952911	2	29	0.403913532966	1.29915045442	tactile	left	catch	visual	voice	NA	FALSE	FALSE	FALSE	TRUE
p05	2015	06	09	10	51	f	21	r	54.799952911	2	30	1.23866731196	0.634968855472	visual	right	right	tactice	NA	262.418839382	FALSE	FALSE	FALSE	FALSE
p05	2015	06	09	10	51	f	21	r	54.799952911	2	31	0.416264176019	1.37618345729	tactile	left	left	visual	voice	NA	FALSE	FALSE	FALSE	FALSE
p05	2015	06	09	10	51	f	21	r	54.799952911	2	32	0.650503927958	0.611725467507	tactile	left	right	tactice	NA	304.694354185	FALSE	FALSE	FALSE	FALSE
p05	2015	06	09	10	51	f	21	r	54.799952911	2	33	0.532413524925	1.461799663	visual	right	right	visual	NA	449.096191674	FALSE	FALSE	FALSE	FALSE
p05	2015	06	09	10	51	f	21	r	54.799952911	2	34	0.403505055932	1.43333635866	visual	right	left	tactice	NA	39.4309629919	FALSE	FALSE	FALSE	FALSE
p05	2015	06	09	10	51	f	21	r	54.799952911	2	35	0.402397066937	0.769005658003	tactile	left	left	visual	NA	353.507499793	FALSE	FALSE	FALSE	FALSE
p05	2015	06	09	10	51	f	21	r	54.799952911	2	36	0.403755191946	1.33186816253	tactile	left	left	visual	voice	NA	FALSE	FALSE	FALSE	FALSE
p05	2015	06	09	10	51	f	21	r	54.799952911	2	37	0.542416394921	1.20129686338	visual	left	right	visual	NA	305.179288378	FALSE	FALSE	FALSE	FALSE
p05	2015	06	09	10	51	f	21	r	54.799952911	2	38	0.396690752939	0.981080307017	tactile	left	right	visual	NA	288.046774687	FALSE	FALSE	FALSE	FALSE
p05	2015	06	09	10	51	f	21	r	54.799952911	2	39	0.407415629015	1.19910187035	visual	left	right	tactice	NA	114.624708425	FALSE	FALSE	FALSE	FALSE
p05	2015	06	09	10	51	f	21	r	54.799952911	2	40	0.401288299006	1.03365987929	visual	right	right	visual	NA	491.969289491	FALSE	FALSE	FALSE	FALSE
p05	2015	06	09	10	51	f	21	r	2.88414156402	2	41	1.25745089597	1.19696897076	visual	right	right	tactice	NA	247.949831071	FALSE	FALSE	FALSE	FALSE
p05	2015	06	09	10	51	f	21	r	2.88414156402	2	42	0.395966954995	0.909277600838	tactile	left	right	visual	NA	77.3824868957	FALSE	FALSE	FALSE	FALSE
p05	2015	06	09	10	51	f	21	r	2.88414156402	2	43	0.451958770049	0.76466199864	visual	left	left	visual	NA	345.962786116	FALSE	FALSE	FALSE	FALSE
p05	2015	06	09	10	51	f	21	r	2.88414156402	2	44	0.40114686999	0.596986883365	visual	right	right	tactice	NA	247.31284345	FALSE	FALSE	FALSE	FALSE
p05	2015	06	09	10	51	f	21	r	2.88414156402	2	45	0.407030774048	0.820932971832	visual	right	right	visual	NA	98.4131739242	FALSE	FALSE	FALSE	FALSE
p05	2015	06	09	10	51	f	21	r	2.88414156402	2	46	0.403387343977	1.24362723769	visual	left	right	tactice	NA	58.3828309318	FALSE	FALSE	FALSE	FALSE
p05	2015	06	09	10	51	f	21	r	2.88414156402	2	47	0.403688475024	1.18963386364	tactile	right	right	tactice	NA	415.176450042	FALSE	FALSE	FALSE	FALSE
p05	2015	06	09	10	51	f	21	r	2.88414156402	2	48	1.65900468198	0.748510300606	visual	left	right	visual	NA	171.348704142	FALSE	FALSE	FALSE	FALSE
p05	2015	06	09	10	51	f	21	r	2.88414156402	2	49	0.39497829997	0.633556201642	visual	right	left	tactice	NA	186.563725118	FALSE	FALSE	FALSE	FALSE
p05	2015	06	09	10	51	f	21	r	2.88414156402	2	50	0.392499818001	0.893364971538	visual	left	right	tactice	NA	60.002719285	FALSE	FALSE	FALSE	FALSE
p05	2015	06	09	10	51	f	21	r	2.88414156402	2	51	0.398794880952	1.26669422569	visual	right	left	visual	voice	NA	FALSE	FALSE	FALSE	FALSE
p05	2015	06	09	10	51	f	21	r	2.88414156402	2	52	0.621207213961	1.20130395729	tactile	left	left	visual	NA	510.581674404	FALSE	FALSE	FALSE	FALSE
p05	2015	06	09	10	51	f	21	r	2.88414156402	2	53	0.402613206999	0.729523559035	tactile	left	right	visual	NA	371.838896652	FALSE	FALSE	FALSE	FALSE
p05	2015	06	09	10	51	f	21	r	2.88414156402	2	54	0.39932500408	0.977922237703	visual	left	right	visual	NA	269.556803978	FALSE	FALSE	FALSE	FALSE
p05	2015	06	09	10	51	f	21	r	2.88414156402	2	55	0.404655233026	1.47130116881	visual	right	catch	tactice	NA	34.4576209318	FALSE	FALSE	FALSE	FALSE
p05	2015	06	09	10	51	f	21	r	2.88414156402	2	56	0.526183890994	0.818103162228	visual	left	right	visual	NA	295.699323528	FALSE	FALSE	FALSE	FALSE
p05	2015	06	09	10	51	f	21	r	2.88414156402	2	57	0.396281976951	0.506227417375	visual	right	left	visual	NA	477.72612737	FALSE	FALSE	FALSE	FALSE
p05	2015	06	09	10	51	f	21	r	2.88414156402	2	58	0.903078200994	0.865805974297	visual	right	left	tactice	NA	262.628062395	FALSE	FALSE	FALSE	FALSE
p05	2015	06	09	10	51	f	21	r	2.88414156402	2	59	3.84561092895	1.34380739538	visual	right	right	tactice	NA	252.150502289	FALSE	FALSE	FALSE	FALSE
p05	2015	06	09	10	51	f	21	r	2.88414156402	2	60	0.430015009944	0.93824567526	tactile	left	left	visual	NA	277.489448432	FALSE	FALSE	FALSE	FALSE
p05	2015	06	09	10	51	f	21	r	2.88414156402	2	61	0.40444841003	1.20868710609	visual	right	right	tactice	NA	251.983886585	FALSE	FALSE	FALSE	FALSE
p05	2015	06	09	10	51	f	21	r	2.88414156402	2	62	0.402104209992	1.17253575992	tactile	left	left	tactice	NA	127.09071883	FALSE	FALSE	FALSE	FALSE
p05	2015	06	09	10	51	f	21	r	2.88414156402	2	63	0.40839350794	1.25816220367	visual	left	catch	visual	NA	94.0206981031	FALSE	FALSE	FALSE	FALSE
p05	2015	06	09	10	51	f	21	r	2.88414156402	2	64	0.399148048949	0.863847644198	visual	right	catch	tactice	NA	NA	FALSE	FALSE	FALSE	FALSE
p05	2015	06	09	10	51	f	21	r	2.88414156402	2	65	0.73100997298	1.26469981291	visual	left	left	visual	NA	309.61447279	FALSE	FALSE	FALSE	FALSE
p05	2015	06	09	10	51	f	21	r	2.88414156402	2	66	0.408632646082	1.36704187279	tactile	left	left	visual	NA	180.922639905	FALSE	FALSE	FALSE	FALSE
p05	2015	06	09	10	51	f	21	r	2.88414156402	2	67	0.406577121001	0.768622286819	tactile	left	right	tactice	NA	131.258866866	FALSE	FALSE	FALSE	FALSE
p05	2015	06	09	10	51	f	21	r	2.88414156402	2	68	0.396429258049	0.737118101896	tactile	left	catch	visual	NA	NA	FALSE	FALSE	FALSE	FALSE
p05	2015	06	09	10	51	f	21	r	2.88414156402	2	69	0.656580119976	1.09717853209	visual	right	right	visual	NA	262.432056712	FALSE	FALSE	FALSE	FALSE
p05	2015	06	09	10	51	f	21	r	2.88414156402	2	70	0.401003601961	0.625932322913	tactile	left	left	tactice	NA	259.437951841	FALSE	FALSE	FALSE	FALSE
p05	2015	06	09	10	51	f	21	r	2.88414156402	2	71	0.399350231979	0.768433936029	visual	right	left	tactice	NA	249.538467615	FALSE	FALSE	FALSE	TRUE
p05	2015	06	09	10	51	f	21	r	2.88414156402	2	72	0.406051598955	1.16705518424	visual	left	right	tactice	NA	108.405513456	FALSE	FALSE	FALSE	FALSE
p05	2015	06	09	10	51	f	21	r	2.88414156402	2	73	0.403582054074	1.23705989075	visual	right	left	visual	NA	288.635333884	FALSE	FALSE	FALSE	FALSE
p05	2015	06	09	10	51	f	21	r	2.88414156402	2	74	1.47110351594	1.21212080676	tactile	right	right	visual	NA	42.3979829066	FALSE	FALSE	FALSE	TRUE
p05	2015	06	09	10	51	f	21	r	2.88414156402	2	75	0.40338264301	0.977242091651	tactile	right	left	visual	NA	345.247823047	FALSE	FALSE	FALSE	FALSE
p05	2015	06	09	10	51	f	21	r	2.88414156402	2	76	0.401494130027	1.08494398458	tactile	right	left	visual	NA	25.0625280896	FALSE	FALSE	FALSE	FALSE
p05	2015	06	09	10	51	f	21	r	2.88414156402	2	77	0.403514947044	0.5550750894	tactile	right	catch	visual	NA	NA	FALSE	FALSE	FALSE	FALSE
p05	2015	06	09	10	51	f	21	r	2.88414156402	2	78	0.711841813987	0.827507501321	tactile	right	right	tactice	NA	49.7977184132	FALSE	FALSE	FALSE	FALSE
p05	2015	06	09	10	51	f	21	r	2.88414156402	2	79	0.398054465069	1.3469563525	visual	left	right	visual	NA	369.719788199	FALSE	FALSE	FALSE	FALSE
p05	2015	06	09	10	51	f	21	r	2.88414156402	2	80	0.392656587996	1.15866490253	tactile	right	catch	visual	NA	NA	FALSE	FALSE	FALSE	FALSE
p05	2015	06	09	10	51	f	21	r	3.65661863401	2	81	0.945448413026	1.05641567842	tactile	right	left	visual	NA	94.154674327	FALSE	FALSE	FALSE	FALSE
p05	2015	06	09	10	51	f	21	r	3.65661863401	2	82	0.399214187055	0.847306691824	visual	left	right	tactice	NA	268.220498809	FALSE	FALSE	FALSE	FALSE
p05	2015	06	09	10	51	f	21	r	3.65661863401	2	83	0.40462159703	1.08223768466	visual	left	catch	tactice	NA	79.5455781044	FALSE	FALSE	FALSE	FALSE
p05	2015	06	09	10	51	f	21	r	3.65661863401	2	84	0.406489540939	1.01989791329	visual	left	catch	visual	NA	198.459144449	FALSE	FALSE	FALSE	FALSE
p05	2015	06	09	10	51	f	21	r	3.65661863401	2	85	0.401929393993	1.09446175957	visual	right	left	tactice	NA	245.216445182	FALSE	FALSE	FALSE	FALSE
p05	2015	06	09	10	51	f	21	r	3.65661863401	2	86	1.52664158703	1.45489503955	tactile	left	left	tactice	voice	NA	FALSE	FALSE	FALSE	FALSE
p05	2015	06	09	10	51	f	21	r	3.65661863401	2	87	0.754519059905	1.37619018935	tactile	left	left	tactice	NA	175.810406334	FALSE	FALSE	FALSE	FALSE
p05	2015	06	09	10	51	f	21	r	3.65661863401	2	88	0.393741803011	1.20856413586	tactile	right	left	tactice	NA	159.931015922	FALSE	FALSE	FALSE	FALSE
p05	2015	06	09	10	51	f	21	r	3.65661863401	2	89	0.410919412971	0.963718713602	visual	right	right	visual	NA	268.56472611	FALSE	FALSE	FALSE	FALSE
p05	2015	06	09	10	51	f	21	r	3.65661863401	2	90	1.66505932901	1.0955806138	tactile	left	left	tactice	NA	23.2228348032	FALSE	FALSE	FALSE	FALSE
p05	2015	06	09	10	51	f	21	r	3.65661863401	2	91	0.477158447029	1.34069195761	visual	left	right	tactice	NA	227.013977128	FALSE	FALSE	FALSE	FALSE
p05	2015	06	09	10	51	f	21	r	3.65661863401	2	92	0.395751817035	0.631334714163	tactile	right	left	tactice	NA	140.799108543	FALSE	FALSE	FALSE	FALSE
p05	2015	06	09	10	51	f	21	r	3.65661863401	2	93	0.474125248962	0.650925659061	tactile	right	left	visual	voice	NA	FALSE	FALSE	FALSE	FALSE
p05	2015	06	09	10	51	f	21	r	3.65661863401	2	94	0.740540390019	0.715289810543	visual	right	catch	visual	NA	273.373727221	FALSE	FALSE	FALSE	FALSE
p05	2015	06	09	10	51	f	21	r	3.65661863401	2	95	0.586634699022	1.25390083783	visual	left	left	tactice	NA	309.141731937	FALSE	FALSE	FALSE	FALSE
p05	2015	06	09	10	51	f	21	r	3.65661863401	2	96	0.48890217999	0.788946028611	tactile	right	right	tactice	NA	81.0269891517	FALSE	FALSE	FALSE	FALSE
p05	2015	06	09	10	51	f	21	r	3.65661863401	2	97	0.541920206975	1.23269682094	visual	left	left	tactice	NA	424.012815696	FALSE	FALSE	FALSE	FALSE
p05	2015	06	09	10	51	f	21	r	3.65661863401	2	98	0.397718362045	0.663360715212	tactile	right	right	tactice	NA	280.615089461	FALSE	FALSE	FALSE	FALSE
p05	2015	06	09	10	51	f	21	r	3.65661863401	2	99	0.41006972699	1.44187092973	visual	right	left	visual	NA	268.38703698	FALSE	FALSE	FALSE	FALSE
p05	2015	06	09	10	51	f	21	r	3.65661863401	2	100	0.402270750026	0.78697056969	visual	right	left	tactice	NA	81.376203103	FALSE	FALSE	FALSE	FALSE
p05	2015	06	09	10	51	f	21	r	3.65661863401	2	101	0.402454263996	1.11458705378	visual	right	right	tactice	NA	285.528876004	FALSE	FALSE	FALSE	FALSE
p05	2015	06	09	10	51	f	21	r	3.65661863401	2	102	0.403663053992	0.586900702342	visual	left	left	visual	NA	13.1732424488	FALSE	FALSE	FALSE	FALSE
p05	2015	06	09	10	51	f	21	r	3.65661863401	2	103	0.449645975023	1.33966050453	visual	left	left	tactice	NA	239.941203268	FALSE	FALSE	FALSE	FALSE
p05	2015	06	09	10	51	f	21	r	3.65661863401	2	104	0.404467751039	0.868725617437	tactile	right	right	tactice	NA	67.2407622915	FALSE	FALSE	FALSE	FALSE
p05	2015	06	09	10	51	f	21	r	3.65661863401	2	105	1.81415155099	1.21679407126	tactile	right	right	tactice	NA	56.9523763843	FALSE	FALSE	FALSE	FALSE
p05	2015	06	09	10	51	f	21	r	3.65661863401	2	106	0.406590697938	0.977890835317	visual	left	left	visual	NA	85.2318514371	FALSE	FALSE	FALSE	FALSE
p05	2015	06	09	10	51	f	21	r	3.65661863401	2	107	0.402131955954	0.818659223912	visual	left	left	visual	NA	251.03640568	FALSE	FALSE	FALSE	FALSE
p05	2015	06	09	10	51	f	21	r	3.65661863401	2	108	1.39460976399	0.971042391568	visual	right	left	tactice	NA	91.841907124	FALSE	FALSE	FALSE	FALSE
p05	2015	06	09	10	51	f	21	r	3.65661863401	2	109	1.66492065997	0.869072321075	tactile	right	left	tactice	voice	NA	FALSE	FALSE	FALSE	FALSE
p05	2015	06	09	10	51	f	21	r	3.65661863401	2	110	0.692967957002	0.675048129429	tactile	right	right	tactice	NA	457.74020534	FALSE	FALSE	FALSE	FALSE
p05	2015	06	09	10	51	f	21	r	3.65661863401	2	111	1.73369016498	1.06278325376	visual	right	right	visual	NA	248.993254965	FALSE	FALSE	FALSE	FALSE
p05	2015	06	09	10	51	f	21	r	3.65661863401	2	112	0.401938682073	0.558258068934	visual	right	left	visual	NA	191.158998758	FALSE	FALSE	FALSE	FALSE
p05	2015	06	09	10	51	f	21	r	3.65661863401	2	113	0.401838263031	1.05528979739	visual	left	right	tactice	NA	108.527570381	FALSE	FALSE	FALSE	FALSE
p05	2015	06	09	10	51	f	21	r	3.65661863401	2	114	0.399842276005	0.567806450466	visual	left	left	tactice	NA	148.132134229	FALSE	FALSE	FALSE	FALSE
p05	2015	06	09	10	51	f	21	r	3.65661863401	2	115	0.392140988959	0.925589947588	visual	left	left	tactice	NA	19.2393601174	FALSE	FALSE	FALSE	FALSE
p05	2015	06	09	10	51	f	21	r	3.65661863401	2	116	0.430510120932	1.05871683755	tactile	right	left	tactice	NA	195.092918235	FALSE	FALSE	FALSE	FALSE
p05	2015	06	09	10	51	f	21	r	3.65661863401	2	117	0.397027725005	1.11322166998	tactile	left	left	visual	voice	NA	FALSE	FALSE	FALSE	FALSE
p05	2015	06	09	10	51	f	21	r	3.65661863401	2	118	0.588249794906	1.03913743993	tactile	right	left	tactice	NA	87.9481317243	FALSE	FALSE	FALSE	FALSE
p05	2015	06	09	10	51	f	21	r	3.65661863401	2	119	0.399617306073	1.02230958465	visual	right	left	visual	NA	286.634146119	FALSE	FALSE	FALSE	FALSE
p05	2015	06	09	10	51	f	21	r	3.65661863401	2	120	1.98153885209	0.700122840371	tactile	right	left	tactice	NA	390.563540393	FALSE	FALSE	FALSE	TRUE
p05	2015	06	09	10	51	f	21	r	3.36725243507	2	121	2.35254368302	1.29629532306	tactile	right	right	visual	voice	NA	FALSE	FALSE	FALSE	TRUE
p05	2015	06	09	10	51	f	21	r	3.36725243507	2	122	0.488282370032	0.823784121886	visual	left	left	tactice	NA	264.421554864	FALSE	FALSE	FALSE	TRUE
p05	2015	06	09	10	51	f	21	r	3.36725243507	2	123	0.451361573068	1.41116777013	visual	left	left	visual	NA	91.0790725611	FALSE	FALSE	FALSE	TRUE
p05	2015	06	09	10	51	f	21	r	3.36725243507	2	124	0.403670796892	0.863637641922	tactile	left	catch	tactice	NA	3.73248581309	FALSE	FALSE	FALSE	FALSE
p05	2015	06	09	10	51	f	21	r	3.36725243507	2	125	0.582911861013	1.16772300875	tactile	left	right	tactice	NA	241.999024991	FALSE	FALSE	FALSE	FALSE
p05	2015	06	09	10	51	f	21	r	3.36725243507	2	126	0.430192981032	0.843514445125	tactile	right	catch	tactice	NA	67.6322926302	FALSE	FALSE	FALSE	FALSE
p05	2015	06	09	10	51	f	21	r	3.36725243507	2	127	0.56515141204	0.800537519079	visual	right	right	visual	NA	157.723723678	FALSE	FALSE	FALSE	FALSE
p05	2015	06	09	10	51	f	21	r	3.36725243507	2	128	0.47234917304	0.640931456902	visual	left	right	visual	NA	358.844388742	FALSE	FALSE	FALSE	FALSE
p05	2015	06	09	10	51	f	21	r	3.36725243507	2	129	0.403403518023	0.571185177425	tactile	right	left	visual	NA	128.088346333	FALSE	FALSE	FALSE	FALSE
p05	2015	06	09	10	51	f	21	r	3.36725243507	2	130	0.401258821017	1.04337720142	visual	right	left	visual	NA	520.196481375	FALSE	FALSE	FALSE	FALSE
p05	2015	06	09	10	51	f	21	r	3.36725243507	2	131	0.401041722973	0.798057486468	visual	left	catch	tactice	NA	NA	FALSE	FALSE	FALSE	FALSE
p05	2015	06	09	10	51	f	21	r	3.36725243507	2	132	0.588693469996	0.56831523819	tactile	right	left	visual	NA	50.7353635039	FALSE	FALSE	FALSE	FALSE
p05	2015	06	09	10	51	f	21	r	3.36725243507	2	133	0.39666948095	1.05834127051	tactile	left	right	tactice	voice	NA	FALSE	FALSE	FALSE	FALSE
p05	2015	06	09	10	51	f	21	r	3.36725243507	2	134	0.502849511919	0.834224325835	visual	left	left	tactice	NA	205.970365903	FALSE	FALSE	FALSE	FALSE
p05	2015	06	09	10	51	f	21	r	3.36725243507	2	135	0.402599112946	0.788224735068	visual	left	left	visual	NA	79.7561296495	FALSE	FALSE	FALSE	FALSE
p05	2015	06	09	10	51	f	21	r	3.36725243507	2	136	0.400536504923	1.4227601573	tactile	right	right	visual	voice	NA	FALSE	FALSE	FALSE	FALSE
p05	2015	06	09	10	51	f	21	r	3.36725243507	2	137	0.469783149078	0.799970214406	tactile	right	right	visual	NA	346.442484297	FALSE	FALSE	FALSE	FALSE
p05	2015	06	09	10	51	f	21	r	3.36725243507	2	138	0.39314228599	1.23617039648	tactile	left	right	tactice	voice	NA	FALSE	FALSE	FALSE	FALSE
p05	2015	06	09	10	51	f	21	r	3.36725243507	2	139	0.454041303019	1.2597924712	visual	left	left	visual	NA	249.53295954	FALSE	FALSE	FALSE	FALSE
p05	2015	06	09	10	51	f	21	r	3.36725243507	2	140	1.79920094996	0.580044421208	tactile	left	left	tactice	NA	76.5693354188	FALSE	FALSE	FALSE	FALSE
p05	2015	06	09	10	51	f	21	r	3.36725243507	2	141	0.396250276011	0.83456081424	tactile	right	right	tactice	NA	512.505191495	FALSE	FALSE	FALSE	FALSE
p05	2015	06	09	10	51	f	21	r	3.36725243507	2	142	1.51702639705	1.34976104719	visual	right	left	tactice	NA	152.735059499	FALSE	FALSE	FALSE	TRUE
p05	2015	06	09	10	51	f	21	r	3.36725243507	2	143	0.400550095015	0.65033292957	visual	left	right	tactice	NA	85.956668132	FALSE	FALSE	FALSE	FALSE
p05	2015	06	09	10	51	f	21	r	3.36725243507	2	144	0.397668122081	0.691153966721	tactile	left	right	tactice	NA	269.914335106	FALSE	FALSE	FALSE	FALSE
p05	2015	06	09	10	51	f	21	r	3.36725243507	2	145	1.38086748403	1.22745822576	visual	left	left	tactice	NA	72.7977929637	FALSE	FALSE	FALSE	FALSE
p05	2015	06	09	10	51	f	21	r	3.36725243507	2	146	0.394357998041	0.925127475515	tactile	right	right	visual	NA	118.536700145	FALSE	FALSE	FALSE	FALSE
p05	2015	06	09	10	51	f	21	r	3.36725243507	2	147	0.407707404927	0.546766097632	visual	right	right	tactice	NA	272.941607982	FALSE	FALSE	FALSE	FALSE
p05	2015	06	09	10	51	f	21	r	3.36725243507	2	148	1.32220774202	0.728917003925	visual	right	right	tactice	NA	51.5803807648	FALSE	FALSE	FALSE	FALSE
p05	2015	06	09	10	51	f	21	r	3.36725243507	2	149	0.458508271025	0.802593711597	tactile	left	left	visual	NA	285.11116514	FALSE	FALSE	FALSE	FALSE
p05	2015	06	09	10	51	f	21	r	3.36725243507	2	150	0.385862710071	0.797492313604	visual	right	right	visual	voice	NA	FALSE	FALSE	FALSE	FALSE
p05	2015	06	09	10	51	f	21	r	3.36725243507	2	151	0.476463499013	0.5622673674	tactile	right	right	visual	NA	499.614217319	FALSE	FALSE	FALSE	FALSE
p05	2015	06	09	10	51	f	21	r	3.36725243507	2	152	0.413779138937	1.14747248589	tactile	left	right	visual	voice	NA	FALSE	FALSE	FALSE	FALSE
p05	2015	06	09	10	51	f	21	r	3.36725243507	2	153	0.674041914986	1.1629831582	tactile	left	right	tactice	NA	85.2428934304	FALSE	FALSE	FALSE	FALSE
p05	2015	06	09	10	51	f	21	r	3.36725243507	2	154	0.492752735969	0.695988320343	tactile	right	left	tactice	NA	249.47496329	FALSE	FALSE	FALSE	FALSE
p05	2015	06	09	10	51	f	21	r	3.36725243507	2	155	0.417444388964	1.06698867326	tactile	right	right	tactice	voice	NA	FALSE	FALSE	FALSE	FALSE
p05	2015	06	09	10	51	f	21	r	3.36725243507	2	156	0.598963015946	0.502861429684	tactile	left	left	visual	NA	472.811521962	FALSE	FALSE	FALSE	FALSE
p05	2015	06	09	10	51	f	21	r	3.36725243507	2	157	0.503127074917	0.512660582693	tactile	left	left	tactice	NA	270.092103048	FALSE	FALSE	FALSE	FALSE
p05	2015	06	09	10	51	f	21	r	3.36725243507	2	158	0.409649180947	0.719429668848	tactile	left	right	visual	NA	232.169548864	FALSE	FALSE	FALSE	FALSE
p05	2015	06	09	10	51	f	21	r	3.36725243507	2	159	0.403400423937	1.15863901862	visual	left	left	visual	NA	129.222144024	FALSE	FALSE	FALSE	FALSE
p05	2015	06	09	10	51	f	21	r	3.36725243507	2	160	0.402513172943	0.863772779867	tactile	left	right	visual	NA	99.2179828463	FALSE	FALSE	FALSE	FALSE
p05	2015	06	09	10	51	f	21	r	14.1769662049	3	1	1.01025241404	1.27327136701	visual	left	left	visual	NA	73.9833298139	FALSE	FALSE	FALSE	FALSE
p05	2015	06	09	10	51	f	21	r	14.1769662049	3	2	0.456968948944	0.519735252255	tactile	left	right	tactice	NA	262.132844422	FALSE	FALSE	FALSE	FALSE
p05	2015	06	09	10	51	f	21	r	14.1769662049	3	3	0.415054575074	0.583447046017	visual	right	right	visual	NA	214.849837706	FALSE	FALSE	FALSE	FALSE
p05	2015	06	09	10	51	f	21	r	14.1769662049	3	4	0.400581409922	1.00497056949	visual	left	catch	visual	voice	NA	FALSE	FALSE	FALSE	FALSE
p05	2015	06	09	10	51	f	21	r	14.1769662049	3	5	0.471871286049	1.13098378421	tactile	right	right	visual	voice	NA	FALSE	FALSE	FALSE	FALSE
p05	2015	06	09	10	51	f	21	r	14.1769662049	3	6	0.49489716196	1.16429771587	tactile	left	right	tactice	NA	361.267814878	FALSE	FALSE	FALSE	FALSE
p05	2015	06	09	10	51	f	21	r	14.1769662049	3	7	0.404906583019	0.997306036664	visual	right	right	tactice	NA	240.014965064	FALSE	FALSE	FALSE	FALSE
p05	2015	06	09	10	51	f	21	r	14.1769662049	3	8	0.401728727971	1.33643517441	visual	right	left	visual	NA	110.334243276	FALSE	FALSE	FALSE	FALSE
p05	2015	06	09	10	51	f	21	r	14.1769662049	3	9	0.406650520978	0.674474462644	tactile	left	right	visual	NA	113.036348135	FALSE	FALSE	FALSE	FALSE
p05	2015	06	09	10	51	f	21	r	14.1769662049	3	10	0.40034727403	0.938849856187	tactile	right	left	visual	voice	NA	FALSE	FALSE	FALSE	FALSE
p05	2015	06	09	10	51	f	21	r	14.1769662049	3	11	0.396600515	1.31794461909	visual	right	right	tactice	NA	260.50288754	FALSE	FALSE	FALSE	TRUE
p05	2015	06	09	10	51	f	21	r	14.1769662049	3	12	0.404295054032	1.24381283651	tactile	right	right	tactice	NA	37.4112572754	FALSE	FALSE	FALSE	FALSE
p05	2015	06	09	10	51	f	21	r	14.1769662049	3	13	0.460293160053	0.996641018471	tactile	right	left	tactice	NA	309.831504244	FALSE	FALSE	FALSE	FALSE
p05	2015	06	09	10	51	f	21	r	14.1769662049	3	14	0.398669046001	0.534866479518	tactile	left	right	tactice	NA	97.0780240605	FALSE	FALSE	FALSE	FALSE
p05	2015	06	09	10	51	f	21	r	14.1769662049	3	15	0.401197107974	1.49865043678	visual	right	left	tactice	NA	169.755792944	FALSE	FALSE	FALSE	FALSE
p05	2015	06	09	10	51	f	21	r	14.1769662049	3	16	0.407414691057	0.970569777581	tactile	right	right	visual	NA	265.402016114	FALSE	FALSE	FALSE	FALSE
p05	2015	06	09	10	51	f	21	r	14.1769662049	3	17	0.40350625501	0.980845773486	visual	right	right	tactice	NA	68.4971242445	FALSE	FALSE	FALSE	FALSE
p05	2015	06	09	10	51	f	21	r	14.1769662049	3	18	0.406942876987	1.44594601089	visual	right	right	visual	NA	65.2131357929	FALSE	FALSE	FALSE	FALSE
p05	2015	06	09	10	51	f	21	r	14.1769662049	3	19	0.486412725062	1.34657788349	visual	right	left	visual	NA	127.813065308	FALSE	FALSE	FALSE	FALSE
p05	2015	06	09	10	51	f	21	r	14.1769662049	3	20	0.401124691009	1.0873176357	tactile	left	right	tactice	NA	38.2511999924	FALSE	FALSE	FALSE	FALSE
p05	2015	06	09	10	51	f	21	r	14.1769662049	3	21	0.408972612	0.618649295256	visual	right	catch	visual	NA	159.161324496	FALSE	FALSE	FALSE	FALSE
p05	2015	06	09	10	51	f	21	r	14.1769662049	3	22	0.40928894002	1.41557276229	visual	left	left	visual	NA	478.390727541	FALSE	FALSE	FALSE	FALSE
p05	2015	06	09	10	51	f	21	r	14.1769662049	3	23	0.400369263953	0.994089030246	visual	left	right	visual	NA	108.013513498	FALSE	FALSE	FALSE	FALSE
p05	2015	06	09	10	51	f	21	r	14.1769662049	3	24	0.403432309977	0.502563064993	tactile	right	right	visual	NA	199.775501736	FALSE	FALSE	FALSE	FALSE
p05	2015	06	09	10	51	f	21	r	14.1769662049	3	25	1.44101446494	0.859444211892	tactile	right	left	visual	voice	NA	FALSE	FALSE	FALSE	FALSE
p05	2015	06	09	10	51	f	21	r	14.1769662049	3	26	0.532914904994	0.890802365143	visual	left	left	visual	NA	409.497416578	FALSE	FALSE	FALSE	FALSE
p05	2015	06	09	10	51	f	21	r	14.1769662049	3	27	0.395573085058	1.46732694916	tactile	left	catch	visual	NA	4.30915970355	FALSE	FALSE	FALSE	FALSE
p05	2015	06	09	10	51	f	21	r	14.1769662049	3	28	0.431930624065	0.564964045945	visual	right	right	tactice	NA	246.164903627	FALSE	FALSE	FALSE	FALSE
p05	2015	06	09	10	51	f	21	r	14.1769662049	3	29	0.40260589309	1.10077104416	tactile	right	left	tactice	voice	NA	FALSE	FALSE	FALSE	FALSE
p05	2015	06	09	10	51	f	21	r	14.1769662049	3	30	0.433771309094	0.829747216092	visual	left	right	tactice	NA	225.591679686	FALSE	FALSE	FALSE	FALSE
p05	2015	06	09	10	51	f	21	r	14.1769662049	3	31	0.394302597968	0.692096335458	visual	left	left	tactice	NA	97.9571532225	FALSE	FALSE	FALSE	FALSE
p05	2015	06	09	10	51	f	21	r	14.1769662049	3	32	0.400475401082	1.19996884805	tactile	right	right	tactice	NA	6.51744368952	FALSE	FALSE	FALSE	FALSE
p05	2015	06	09	10	51	f	21	r	14.1769662049	3	33	0.541181977955	1.15544291079	tactile	right	left	tactice	NA	206.659255899	FALSE	FALSE	FALSE	FALSE
p05	2015	06	09	10	51	f	21	r	14.1769662049	3	34	0.40633762395	0.950208763142	visual	right	right	visual	NA	82.565853605	FALSE	FALSE	FALSE	FALSE
p05	2015	06	09	10	51	f	21	r	14.1769662049	3	35	1.39757999498	0.875090490566	tactile	left	left	visual	NA	160.630837083	FALSE	FALSE	FALSE	FALSE
p05	2015	06	09	10	51	f	21	r	14.1769662049	3	36	0.402682394953	0.744199940194	visual	right	right	visual	NA	95.9330544574	FALSE	FALSE	FALSE	FALSE
p05	2015	06	09	10	51	f	21	r	14.1769662049	3	37	1.914380003	1.40898050122	tactile	left	left	tactice	NA	30.7689754991	FALSE	FALSE	FALSE	FALSE
p05	2015	06	09	10	51	f	21	r	14.1769662049	3	38	0.423108471092	0.516307351016	tactile	right	right	tactice	NA	317.330812686	FALSE	FALSE	FALSE	FALSE
p05	2015	06	09	10	51	f	21	r	14.1769662049	3	39	0.399418563	1.17028593096	tactile	left	right	visual	voice	NA	FALSE	FALSE	FALSE	FALSE
p05	2015	06	09	10	51	f	21	r	14.1769662049	3	40	0.418053779053	1.31693448048	visual	left	left	visual	NA	282.355693285	FALSE	FALSE	FALSE	FALSE
p05	2015	06	09	10	51	f	21	r	3.63377631106	3	41	1.43773093505	1.1769268698	visual	left	catch	tactice	NA	48.1170159765	FALSE	FALSE	FALSE	FALSE
p05	2015	06	09	10	51	f	21	r	3.63377631106	3	42	0.726778081967	0.917992373798	visual	left	left	tactice	voice	NA	FALSE	FALSE	FALSE	FALSE
p05	2015	06	09	10	51	f	21	r	3.63377631106	3	43	0.707064727088	1.01890037604	visual	right	left	tactice	NA	222.503900644	FALSE	FALSE	FALSE	FALSE
p05	2015	06	09	10	51	f	21	r	3.63377631106	3	44	0.516602621065	1.11617145844	visual	left	right	tactice	voice	NA	FALSE	FALSE	FALSE	FALSE
p05	2015	06	09	10	51	f	21	r	3.63377631106	3	45	0.580133207957	1.12590569913	tactile	left	right	tactice	NA	242.538989638	FALSE	FALSE	FALSE	FALSE
p05	2015	06	09	10	51	f	21	r	3.63377631106	3	46	0.492162402952	1.18697530819	visual	right	left	tactice	NA	68.8881515525	FALSE	FALSE	FALSE	FALSE
p05	2015	06	09	10	51	f	21	r	3.63377631106	3	47	0.595146359992	0.808320028894	tactile	left	left	visual	NA	88.6499277549	FALSE	FALSE	FALSE	FALSE
p05	2015	06	09	10	51	f	21	r	3.63377631106	3	48	0.396335699945	0.653347006737	tactile	right	left	tactice	NA	125.736693968	FALSE	FALSE	FALSE	FALSE
p05	2015	06	09	10	51	f	21	r	3.63377631106	3	49	0.411465480924	1.36357298894	visual	left	right	visual	NA	18.9460087568	FALSE	FALSE	FALSE	FALSE
p05	2015	06	09	10	51	f	21	r	3.63377631106	3	50	0.394818273024	1.33505985115	tactile	right	catch	tactice	voice	NA	FALSE	FALSE	FALSE	FALSE
p05	2015	06	09	10	51	f	21	r	3.63377631106	3	51	0.520018826937	0.948096050296	tactile	right	catch	tactice	NA	NA	FALSE	FALSE	FALSE	FALSE
p05	2015	06	09	10	51	f	21	r	3.63377631106	3	52	0.724257381982	0.915529942987	visual	left	right	visual	NA	173.335428699	FALSE	FALSE	FALSE	FALSE
p05	2015	06	09	10	51	f	21	r	3.63377631106	3	53	0.399082243908	1.43348213276	tactile	right	left	tactice	NA	77.8487820644	FALSE	FALSE	FALSE	FALSE
p05	2015	06	09	10	51	f	21	r	3.63377631106	3	54	0.396538547007	1.08046072269	tactile	left	left	visual	NA	576.087692054	FALSE	FALSE	FALSE	FALSE
p05	2015	06	09	10	51	f	21	r	3.63377631106	3	55	0.397319989046	1.33781350498	tactile	left	right	tactice	NA	127.311253687	FALSE	FALSE	FALSE	TRUE
p05	2015	06	09	10	51	f	21	r	3.63377631106	3	56	0.408755279961	1.13891575607	tactile	left	left	tactice	NA	204.293467687	FALSE	FALSE	FALSE	FALSE
p05	2015	06	09	10	51	f	21	r	3.63377631106	3	57	0.407180774026	0.979177177264	tactile	right	right	tactice	NA	157.177702407	FALSE	FALSE	FALSE	FALSE
p05	2015	06	09	10	51	f	21	r	3.63377631106	3	58	0.395305023994	0.689859849293	tactile	left	left	visual	NA	248.96758853	FALSE	FALSE	FALSE	FALSE
p05	2015	06	09	10	51	f	21	r	3.63377631106	3	59	1.38147249992	1.38334571337	tactile	right	left	visual	NA	29.6551983338	FALSE	FALSE	FALSE	FALSE
p05	2015	06	09	10	51	f	21	r	3.63377631106	3	60	0.394732258981	1.1471251092	visual	right	catch	visual	NA	143.322944525	FALSE	FALSE	FALSE	FALSE
p05	2015	06	09	10	51	f	21	r	3.63377631106	3	61	0.3937106831	0.728216523627	tactile	right	right	visual	NA	501.226880122	FALSE	FALSE	FALSE	FALSE
p05	2015	06	09	10	51	f	21	r	3.63377631106	3	62	0.426916138967	1.26028583006	visual	right	right	visual	NA	246.054512798	FALSE	FALSE	FALSE	FALSE
p05	2015	06	09	10	51	f	21	r	3.63377631106	3	63	0.396796392044	0.62840358003	visual	left	left	visual	NA	299.852160737	FALSE	FALSE	FALSE	FALSE
p05	2015	06	09	10	51	f	21	r	3.63377631106	3	64	0.405012998963	0.980445914571	visual	right	left	tactice	NA	147.409877158	FALSE	FALSE	FALSE	FALSE
p05	2015	06	09	10	51	f	21	r	3.63377631106	3	65	0.393811224028	0.811249083136	tactile	right	right	visual	NA	85.190029582	FALSE	FALSE	FALSE	FALSE
p05	2015	06	09	10	51	f	21	r	3.63377631106	3	66	0.394824495073	0.954547832842	tactile	left	right	tactice	voice	NA	FALSE	FALSE	FALSE	FALSE
p05	2015	06	09	10	51	f	21	r	3.63377631106	3	67	0.566427840968	1.12442899724	tactile	left	left	tactice	NA	445.414107409	FALSE	FALSE	FALSE	FALSE
p05	2015	06	09	10	51	f	21	r	3.63377631106	3	68	0.411342445062	0.634036935839	tactile	right	left	visual	NA	81.8146258825	FALSE	FALSE	FALSE	FALSE
p05	2015	06	09	10	51	f	21	r	3.63377631106	3	69	0.407686967053	0.633112718803	tactile	right	left	visual	NA	115.933196852	FALSE	FALSE	FALSE	FALSE
p05	2015	06	09	10	51	f	21	r	3.63377631106	3	70	0.401456337888	0.706452948863	tactile	right	left	tactice	NA	98.3923379099	FALSE	FALSE	FALSE	FALSE
p05	2015	06	09	10	51	f	21	r	3.63377631106	3	71	0.395798312966	1.33217185188	visual	right	catch	tactice	voice	NA	FALSE	FALSE	FALSE	FALSE
p05	2015	06	09	10	51	f	21	r	3.63377631106	3	72	0.429030069034	0.683338481501	visual	right	right	visual	NA	565.769232227	FALSE	FALSE	FALSE	FALSE
p05	2015	06	09	10	51	f	21	r	3.63377631106	3	73	0.399697804009	0.715225139748	tactile	left	right	visual	NA	168.246769928	FALSE	FALSE	FALSE	FALSE
p05	2015	06	09	10	51	f	21	r	3.63377631106	3	74	0.399310247041	1.20489254084	visual	left	right	visual	NA	365.877189906	FALSE	FALSE	FALSE	FALSE
p05	2015	06	09	10	51	f	21	r	3.63377631106	3	75	0.403152815998	1.02950792613	visual	left	right	visual	NA	93.7612806447	FALSE	FALSE	FALSE	FALSE
p05	2015	06	09	10	51	f	21	r	3.63377631106	3	76	0.421340835979	0.70351803768	tactile	right	left	visual	NA	139.822166064	FALSE	FALSE	FALSE	FALSE
p05	2015	06	09	10	51	f	21	r	3.63377631106	3	77	1.36695490091	1.16837987693	tactile	right	left	visual	NA	15.9302618122	FALSE	FALSE	FALSE	FALSE
p05	2015	06	09	10	51	f	21	r	3.63377631106	3	78	0.39533168904	0.588878378637	tactile	right	right	visual	NA	195.492220111	FALSE	FALSE	FALSE	FALSE
p05	2015	06	09	10	51	f	21	r	3.63377631106	3	79	0.398333057994	0.584807917074	tactile	right	catch	visual	NA	NA	FALSE	FALSE	FALSE	FALSE
p05	2015	06	09	10	51	f	21	r	3.63377631106	3	80	0.574391663074	1.27962223439	visual	right	left	tactice	NA	12.4787403038	FALSE	FALSE	FALSE	FALSE
p05	2015	06	09	10	51	f	21	r	3.557002621	3	81	1.24650203099	0.700149879192	visual	left	left	visual	NA	53.466043435	FALSE	FALSE	FALSE	FALSE
p05	2015	06	09	10	51	f	21	r	3.557002621	3	82	0.479742335971	0.692010750414	tactile	left	catch	tactice	voice	NA	FALSE	FALSE	FALSE	FALSE
p05	2015	06	09	10	51	f	21	r	3.557002621	3	83	0.508026316995	1.03716806389	tactile	left	catch	tactice	NA	118.909613811	FALSE	FALSE	FALSE	FALSE
p05	2015	06	09	10	51	f	21	r	3.557002621	3	84	0.429272145964	0.860759952342	tactile	right	right	tactice	NA	186.904343427	FALSE	FALSE	FALSE	FALSE
p05	2015	06	09	10	51	f	21	r	3.557002621	3	85	0.404450023081	1.39701890771	visual	left	right	visual	NA	21.4313180186	FALSE	FALSE	FALSE	FALSE
p05	2015	06	09	10	51	f	21	r	3.557002621	3	86	0.446466061985	1.36489401175	visual	right	right	tactice	NA	118.043803959	FALSE	FALSE	FALSE	FALSE
p05	2015	06	09	10	51	f	21	r	3.557002621	3	87	0.421281046001	0.849797995467	tactile	left	left	tactice	NA	39.7741952911	FALSE	FALSE	FALSE	FALSE
p05	2015	06	09	10	51	f	21	r	3.557002621	3	88	0.403664876008	1.07125259784	tactile	left	left	visual	NA	282.751022954	FALSE	FALSE	FALSE	FALSE
p05	2015	06	09	10	51	f	21	r	3.557002621	3	89	0.394089438021	0.75762822296	visual	right	right	visual	NA	163.388006738	FALSE	FALSE	FALSE	FALSE
p05	2015	06	09	10	51	f	21	r	3.557002621	3	90	0.398486194084	1.15384601364	visual	left	right	visual	NA	124.96510311	FALSE	FALSE	FALSE	FALSE
p05	2015	06	09	10	51	f	21	r	3.557002621	3	91	0.404074628022	0.590289722157	tactile	left	right	visual	NA	304.259667522	FALSE	FALSE	FALSE	FALSE
p05	2015	06	09	10	51	f	21	r	3.557002621	3	92	1.48462339991	1.15792515088	visual	right	left	visual	NA	7.89522286505	FALSE	FALSE	FALSE	FALSE
p05	2015	06	09	10	51	f	21	r	3.557002621	3	93	0.415773727	1.10843159862	tactile	left	right	visual	NA	7.38518510479	FALSE	FALSE	FALSE	FALSE
p05	2015	06	09	10	51	f	21	r	3.557002621	3	94	0.402665144997	0.845861095114	visual	left	catch	visual	NA	180.181252537	FALSE	FALSE	FALSE	FALSE
p05	2015	06	09	10	51	f	21	r	3.557002621	3	95	0.40421776101	1.21986621788	visual	right	left	visual	NA	75.2315367572	FALSE	FALSE	FALSE	FALSE
p05	2015	06	09	10	51	f	21	r	3.557002621	3	96	0.402586022974	0.575600048255	tactile	right	right	tactice	NA	519.779708353	FALSE	FALSE	FALSE	FALSE
p05	2015	06	09	10	51	f	21	r	3.557002621	3	97	0.397168971947	1.04295248984	tactile	right	right	visual	NA	53.7165838759	FALSE	FALSE	FALSE	FALSE
p05	2015	06	09	10	51	f	21	r	3.557002621	3	98	0.434745952953	1.39993586031	visual	right	catch	tactice	voice	NA	FALSE	FALSE	FALSE	FALSE
p05	2015	06	09	10	51	f	21	r	3.557002621	3	99	0.471219591098	1.19601977994	tactile	right	right	tactice	NA	162.825500825	FALSE	FALSE	FALSE	FALSE
p05	2015	06	09	10	51	f	21	r	3.557002621	3	100	0.409452506923	0.989126816981	visual	left	right	tactice	NA	157.775443746	FALSE	FALSE	FALSE	FALSE
p05	2015	06	09	10	51	f	21	r	3.557002621	3	101	1.27283135301	0.532660393206	visual	right	left	visual	NA	173.800669611	FALSE	FALSE	FALSE	FALSE
p05	2015	06	09	10	51	f	21	r	3.557002621	3	102	0.402558896923	1.09290136842	visual	left	left	tactice	voice	NA	FALSE	FALSE	FALSE	FALSE
p05	2015	06	09	10	51	f	21	r	3.557002621	3	103	0.437543218955	1.36767736963	visual	left	right	tactice	NA	104.987986153	FALSE	FALSE	FALSE	FALSE
p05	2015	06	09	10	51	f	21	r	3.557002621	3	104	0.432055055047	1.33490379877	visual	right	left	visual	NA	75.0040669227	FALSE	FALSE	FALSE	FALSE
p05	2015	06	09	10	51	f	21	r	3.557002621	3	105	0.401087093982	0.687044301444	visual	left	left	tactice	NA	121.67124229	FALSE	FALSE	FALSE	FALSE
p05	2015	06	09	10	51	f	21	r	3.557002621	3	106	0.402556917048	1.4010078404	tactile	left	left	tactice	NA	111.463752342	FALSE	FALSE	FALSE	TRUE
p05	2015	06	09	10	51	f	21	r	3.557002621	3	107	1.32315090206	1.15952809056	visual	left	right	tactice	NA	78.4357092343	FALSE	FALSE	FALSE	TRUE
p05	2015	06	09	10	51	f	21	r	3.557002621	3	108	0.404379482032	0.707081927808	visual	left	left	tactice	NA	64.4666109001	FALSE	FALSE	FALSE	TRUE
p05	2015	06	09	10	51	f	21	r	3.557002621	3	109	8.02633767307	0.837765987991	tactile	left	right	visual	NA	39.0621277038	FALSE	FALSE	FALSE	FALSE
p05	2015	06	09	10	51	f	21	r	3.557002621	3	110	0.452576771029	0.567971819431	tactile	right	left	visual	NA	277.641447377	FALSE	FALSE	FALSE	FALSE
p05	2015	06	09	10	51	f	21	r	3.557002621	3	111	0.403629779001	0.962593410944	tactile	left	right	tactice	voice	NA	FALSE	FALSE	FALSE	FALSE
p05	2015	06	09	10	51	f	21	r	3.557002621	3	112	0.50209537195	1.23844122975	tactile	left	left	tactice	NA	70.1506078476	FALSE	FALSE	FALSE	FALSE
p05	2015	06	09	10	51	f	21	r	3.557002621	3	113	0.52653979091	1.23195782947	visual	left	left	visual	voice	NA	FALSE	FALSE	FALSE	FALSE
p05	2015	06	09	10	51	f	21	r	3.557002621	3	114	0.513546818984	1.17438093639	visual	right	left	visual	NA	4.52802528162	FALSE	FALSE	FALSE	TRUE
p05	2015	06	09	10	51	f	21	r	3.557002621	3	115	0.476429709001	1.37718516583	visual	left	right	tactice	NA	74.0876639029	FALSE	FALSE	FALSE	TRUE
p05	2015	06	09	10	51	f	21	r	3.557002621	3	116	0.406894808053	1.33859424362	visual	left	left	tactice	NA	196.800714126	FALSE	FALSE	FALSE	TRUE
p05	2015	06	09	10	51	f	21	r	3.557002621	3	117	0.398863084964	0.501667535782	visual	left	catch	tactice	NA	176.398918964	FALSE	FALSE	FALSE	FALSE
p05	2015	06	09	10	51	f	21	r	3.557002621	3	118	0.416388646932	0.653785693471	visual	right	left	tactice	NA	100.265803281	FALSE	FALSE	FALSE	FALSE
p05	2015	06	09	10	51	f	21	r	3.557002621	3	119	0.429093235056	0.872956464876	visual	left	left	visual	NA	70.2637488721	FALSE	FALSE	FALSE	TRUE
p05	2015	06	09	10	51	f	21	r	3.557002621	3	120	1.318467187	1.23836591924	tactile	left	left	tactice	NA	152.584700496	FALSE	FALSE	FALSE	TRUE
p05	2015	06	09	10	51	f	21	r	4.2869766521	3	121	1.15575607191	1.01458359044	tactile	left	left	tactice	voice	NA	FALSE	FALSE	FALSE	FALSE
p05	2015	06	09	10	51	f	21	r	4.2869766521	3	122	0.487705431995	1.32845521169	tactile	right	left	tactice	NA	236.289936001	FALSE	FALSE	FALSE	FALSE
p05	2015	06	09	10	51	f	21	r	4.2869766521	3	123	0.498142680037	0.954978012349	visual	left	right	tactice	NA	135.109758354	FALSE	FALSE	FALSE	FALSE
p05	2015	06	09	10	51	f	21	r	4.2869766521	3	124	0.45975843491	1.49359878928	tactile	right	right	visual	voice	NA	FALSE	FALSE	FALSE	FALSE
p05	2015	06	09	10	51	f	21	r	4.2869766521	3	125	0.498298585997	1.39926957012	tactile	left	right	visual	NA	75.4407895729	FALSE	FALSE	FALSE	FALSE
p05	2015	06	09	10	51	f	21	r	4.2869766521	3	126	0.437542580068	1.10114055334	tactile	right	left	visual	NA	215.099168359	FALSE	FALSE	FALSE	FALSE
p05	2015	06	09	10	51	f	21	r	4.2869766521	3	127	0.402260373929	1.31460820604	visual	right	right	tactice	NA	172.16935067	FALSE	FALSE	FALSE	FALSE
p05	2015	06	09	10	51	f	21	r	4.2869766521	3	128	0.406449769973	1.13972786387	visual	right	left	tactice	NA	125.292595825	FALSE	FALSE	FALSE	FALSE
p05	2015	06	09	10	51	f	21	r	4.2869766521	3	129	0.471657268936	1.36418878011	tactile	right	catch	visual	voice	NA	FALSE	FALSE	FALSE	FALSE
p05	2015	06	09	10	51	f	21	r	4.2869766521	3	130	0.532858664985	0.840196778342	visual	right	right	visual	NA	359.361775452	FALSE	FALSE	FALSE	FALSE
p05	2015	06	09	10	51	f	21	r	4.2869766521	3	131	0.396043434041	0.622258103802	tactile	left	right	tactice	NA	83.8210819056	FALSE	FALSE	FALSE	FALSE
p05	2015	06	09	10	51	f	21	r	4.2869766521	3	132	0.397112119012	1.48367258649	visual	right	left	visual	NA	30.5719012395	FALSE	FALSE	FALSE	FALSE
p05	2015	06	09	10	51	f	21	r	4.2869766521	3	133	0.394973317976	0.914618673654	visual	right	left	tactice	NA	143.992351135	FALSE	FALSE	FALSE	FALSE
p05	2015	06	09	10	51	f	21	r	4.2869766521	3	134	0.393644067924	1.43850139546	tactile	left	left	visual	voice	NA	FALSE	FALSE	FALSE	FALSE
p05	2015	06	09	10	51	f	21	r	4.2869766521	3	135	0.461843090947	1.17964998505	visual	right	right	tactice	NA	133.219426731	FALSE	FALSE	FALSE	FALSE
p05	2015	06	09	10	51	f	21	r	4.2869766521	3	136	0.402655729908	0.592952657596	visual	left	left	tactice	NA	233.109515044	FALSE	FALSE	FALSE	FALSE
p05	2015	06	09	10	51	f	21	r	4.2869766521	3	137	0.395456598955	0.850963042642	visual	right	right	tactice	NA	36.5623949328	FALSE	FALSE	FALSE	FALSE
p05	2015	06	09	10	51	f	21	r	4.2869766521	3	138	0.394566931995	0.662034910279	visual	right	right	tactice	NA	126.481994521	FALSE	FALSE	FALSE	FALSE
p05	2015	06	09	10	51	f	21	r	4.2869766521	3	139	0.394871997996	1.23013220092	visual	right	left	visual	NA	14.5162878325	FALSE	FALSE	FALSE	TRUE
p05	2015	06	09	10	51	f	21	r	4.2869766521	3	140	0.393478458049	1.34985780481	tactile	left	left	visual	voice	NA	FALSE	FALSE	FALSE	FALSE
p05	2015	06	09	10	51	f	21	r	4.2869766521	3	141	0.704162709066	1.49176895705	tactile	left	right	visual	voice	NA	FALSE	FALSE	FALSE	FALSE
p05	2015	06	09	10	51	f	21	r	4.2869766521	3	142	0.40754462895	0.958695911953	tactile	right	right	tactice	NA	215.535021853	FALSE	FALSE	FALSE	FALSE
p05	2015	06	09	10	51	f	21	r	4.2869766521	3	143	0.435333476053	0.505952881193	visual	right	right	visual	NA	162.279416458	FALSE	FALSE	FALSE	FALSE
p05	2015	06	09	10	51	f	21	r	4.2869766521	3	144	0.405311194016	0.788914095934	visual	left	right	tactice	voice	NA	FALSE	FALSE	FALSE	FALSE
p05	2015	06	09	10	51	f	21	r	4.2869766521	3	145	0.404809959931	1.49702897678	visual	right	left	tactice	NA	237.20193794	FALSE	FALSE	FALSE	TRUE
p05	2015	06	09	10	51	f	21	r	4.2869766521	3	146	0.412182881963	1.00289318314	tactile	right	left	tactice	NA	225.205680588	FALSE	FALSE	FALSE	FALSE
p05	2015	06	09	10	51	f	21	r	4.2869766521	3	147	0.39929097204	1.13144690261	visual	left	left	tactice	NA	99.6580701321	FALSE	FALSE	FALSE	FALSE
p05	2015	06	09	10	51	f	21	r	4.2869766521	3	148	0.403130804072	0.605797186314	visual	left	left	visual	NA	177.887425525	FALSE	FALSE	FALSE	FALSE
p05	2015	06	09	10	51	f	21	r	4.2869766521	3	149	0.394838033011	0.707172043411	tactile	left	left	tactice	NA	88.6419422459	FALSE	FALSE	FALSE	FALSE
p05	2015	06	09	10	51	f	21	r	4.2869766521	3	150	1.39334647206	0.623918978998	tactile	left	left	visual	NA	369.616046781	FALSE	FALSE	FALSE	FALSE
p05	2015	06	09	10	51	f	21	r	4.2869766521	3	151	1.75810439093	0.904091438304	tactile	left	right	visual	NA	215.200405335	FALSE	FALSE	FALSE	FALSE
p05	2015	06	09	10	51	f	21	r	4.2869766521	3	152	0.401072190027	0.863322086325	tactile	right	right	visual	NA	91.9903194299	FALSE	FALSE	FALSE	FALSE
p05	2015	06	09	10	51	f	21	r	4.2869766521	3	153	0.39275641297	0.903259976894	tactile	right	left	tactice	NA	11.0940578161	FALSE	FALSE	FALSE	FALSE
p05	2015	06	09	10	51	f	21	r	4.2869766521	3	154	0.397267147084	1.1348759274	visual	left	left	tactice	voice	NA	FALSE	FALSE	FALSE	FALSE
p05	2015	06	09	10	51	f	21	r	4.2869766521	3	155	0.426712852088	0.509297015544	visual	left	right	tactice	NA	233.13657823	FALSE	FALSE	FALSE	FALSE
p05	2015	06	09	10	51	f	21	r	4.2869766521	3	156	0.407291622018	0.917060839054	visual	left	right	visual	NA	1.3480016496	FALSE	FALSE	FALSE	FALSE
p05	2015	06	09	10	51	f	21	r	4.2869766521	3	157	0.397913471912	0.954246533359	tactile	left	left	visual	NA	199.690240435	FALSE	FALSE	FALSE	FALSE
p05	2015	06	09	10	51	f	21	r	4.2869766521	3	158	0.398563325056	0.601199511147	tactile	left	catch	visual	NA	195.360477665	FALSE	FALSE	FALSE	TRUE
p05	2015	06	09	10	51	f	21	r	4.2869766521	3	159	0.40015745	0.54590482941	visual	left	right	visual	NA	173.238103278	FALSE	FALSE	FALSE	TRUE
p05	2015	06	09	10	51	f	21	r	4.2869766521	3	160	0.405486502103	0.604843913134	tactile	right	right	tactice	NA	60.1045585936	FALSE	FALSE	FALSE	FALSE
p05	2015	06	09	10	51	f	21	r	33.143570294	4	1	0.731764788041	0.615179586746	visual	right	catch	visual	NA	106.688612024	FALSE	FALSE	FALSE	FALSE
p05	2015	06	09	10	51	f	21	r	33.143570294	4	2	0.492614503019	1.4091682584	tactile	left	left	visual	voice	NA	FALSE	FALSE	FALSE	FALSE
p05	2015	06	09	10	51	f	21	r	33.143570294	4	3	0.437432280043	0.90437419491	visual	left	left	visual	NA	176.671169815	FALSE	FALSE	FALSE	FALSE
p05	2015	06	09	10	51	f	21	r	33.143570294	4	4	0.397131793085	0.522300901299	tactile	left	right	visual	NA	104.188229307	FALSE	FALSE	FALSE	FALSE
p05	2015	06	09	10	51	f	21	r	33.143570294	4	5	0.406777212047	0.825856012321	visual	left	left	visual	NA	28.4794963663	FALSE	FALSE	FALSE	TRUE
p05	2015	06	09	10	51	f	21	r	33.143570294	4	6	0.394308004063	1.16890523085	visual	right	right	tactice	NA	45.4846068751	FALSE	FALSE	FALSE	FALSE
p05	2015	06	09	10	51	f	21	r	33.143570294	4	7	0.408906479017	1.04898279196	tactile	left	left	tactice	voice	NA	FALSE	FALSE	FALSE	FALSE
p05	2015	06	09	10	51	f	21	r	33.143570294	4	8	0.521080348059	0.885994593604	tactile	left	right	tactice	NA	184.595335042	FALSE	FALSE	FALSE	FALSE
p05	2015	06	09	10	51	f	21	r	33.143570294	4	9	0.402107939008	0.931260998009	tactile	right	left	tactice	NA	23.5018567182	FALSE	FALSE	FALSE	FALSE
p05	2015	06	09	10	51	f	21	r	33.143570294	4	10	0.403739727917	0.533641399176	tactile	left	left	tactice	NA	75.8355074795	FALSE	FALSE	FALSE	FALSE
p05	2015	06	09	10	51	f	21	r	33.143570294	4	11	0.404559367104	1.1437693521	tactile	right	left	visual	NA	24.5759525569	FALSE	FALSE	FALSE	FALSE
p05	2015	06	09	10	51	f	21	r	33.143570294	4	12	0.396223707939	1.13166814166	tactile	left	left	visual	voice	NA	FALSE	FALSE	FALSE	FALSE
p05	2015	06	09	10	51	f	21	r	33.143570294	4	13	0.403149861959	0.895541881188	tactile	right	left	tactice	NA	72.9375045048	FALSE	FALSE	FALSE	FALSE
p05	2015	06	09	10	51	f	21	r	33.143570294	4	14	0.402387991082	1.29344819429	tactile	left	left	visual	voice	NA	FALSE	FALSE	FALSE	FALSE
p05	2015	06	09	10	51	f	21	r	33.143570294	4	15	0.400919817039	0.767011743295	tactile	right	right	tactice	NA	401.562383515	FALSE	FALSE	FALSE	FALSE
p05	2015	06	09	10	51	f	21	r	33.143570294	4	16	1.39797957498	1.35324165508	visual	left	right	tactice	NA	56.3109926879	FALSE	FALSE	FALSE	FALSE
p05	2015	06	09	10	51	f	21	r	33.143570294	4	17	0.90054089902	0.923947793978	visual	left	catch	visual	NA	65.1648986386	FALSE	FALSE	FALSE	FALSE
p05	2015	06	09	10	51	f	21	r	33.143570294	4	18	3.30750365392	0.667631250109	visual	right	left	tactice	NA	211.05575969	FALSE	FALSE	FALSE	FALSE
p05	2015	06	09	10	51	f	21	r	33.143570294	4	19	0.400256967056	0.960275305257	tactile	right	left	visual	voice	NA	FALSE	FALSE	FALSE	FALSE
p05	2015	06	09	10	51	f	21	r	33.143570294	4	20	0.400346379029	1.28392910762	visual	left	left	visual	NA	302.535379189	FALSE	FALSE	FALSE	FALSE
p05	2015	06	09	10	51	f	21	r	33.143570294	4	21	1.36809040396	1.14886109628	visual	right	left	tactice	NA	168.439075467	FALSE	FALSE	FALSE	FALSE
p05	2015	06	09	10	51	f	21	r	33.143570294	4	22	0.436803712975	1.31646543139	tactile	right	catch	tactice	NA	33.7329453323	FALSE	FALSE	FALSE	FALSE
p05	2015	06	09	10	51	f	21	r	33.143570294	4	23	0.589176986949	0.925504315876	tactile	right	left	visual	voice	NA	FALSE	FALSE	FALSE	FALSE
p05	2015	06	09	10	51	f	21	r	33.143570294	4	24	0.563647530973	0.524890640627	visual	left	left	tactice	NA	319.915167056	FALSE	FALSE	FALSE	FALSE
p05	2015	06	09	10	51	f	21	r	33.143570294	4	25	0.424197615008	1.32911770938	tactile	left	right	tactice	voice	NA	FALSE	FALSE	FALSE	FALSE
p05	2015	06	09	10	51	f	21	r	33.143570294	4	26	0.476207221043	0.83601046463	visual	right	right	tactice	NA	291.578252101	FALSE	FALSE	FALSE	FALSE
p05	2015	06	09	10	51	f	21	r	33.143570294	4	27	0.457703866996	1.2964309876	tactile	left	right	tactice	NA	107.512731222	FALSE	FALSE	FALSE	FALSE
p05	2015	06	09	10	51	f	21	r	33.143570294	4	28	0.422078047995	1.08443035777	visual	left	catch	visual	NA	157.769522979	FALSE	FALSE	FALSE	FALSE
p05	2015	06	09	10	51	f	21	r	33.143570294	4	29	0.409495525993	1.3847247711	visual	right	left	visual	NA	203.132354538	FALSE	FALSE	FALSE	FALSE
p05	2015	06	09	10	51	f	21	r	33.143570294	4	30	0.405938707991	0.743768971125	tactile	left	right	tactice	NA	210.53808555	FALSE	FALSE	FALSE	FALSE
p05	2015	06	09	10	51	f	21	r	33.143570294	4	31	0.396060594008	0.978885230532	tactile	left	right	visual	NA	85.0238562562	FALSE	FALSE	FALSE	FALSE
p05	2015	06	09	10	51	f	21	r	33.143570294	4	32	0.393820708967	1.08880248263	visual	left	left	visual	NA	130.24932507	FALSE	FALSE	FALSE	FALSE
p05	2015	06	09	10	51	f	21	r	33.143570294	4	33	0.395061207004	0.915293354591	visual	left	catch	tactice	NA	96.9857752789	FALSE	FALSE	FALSE	TRUE
p05	2015	06	09	10	51	f	21	r	33.143570294	4	34	0.401177852065	1.39463035976	visual	right	left	visual	NA	255.263441009	FALSE	FALSE	FALSE	FALSE
p05	2015	06	09	10	51	f	21	r	33.143570294	4	35	0.401453561033	1.31490884509	tactile	left	right	visual	NA	393.490780611	FALSE	FALSE	FALSE	FALSE
p05	2015	06	09	10	51	f	21	r	33.143570294	4	36	0.393789616995	1.3990466659	visual	right	left	tactice	NA	160.667059827	FALSE	FALSE	FALSE	FALSE
p05	2015	06	09	10	51	f	21	r	33.143570294	4	37	0.404909766978	0.994814250545	tactile	left	catch	tactice	voice	NA	FALSE	FALSE	FALSE	FALSE
p05	2015	06	09	10	51	f	21	r	33.143570294	4	38	1.15453297005	1.21340255954	tactile	right	right	tactice	NA	336.546258186	FALSE	FALSE	FALSE	FALSE
p05	2015	06	09	10	51	f	21	r	33.143570294	4	39	0.395911282045	0.805923504061	visual	right	left	tactice	NA	69.4696576102	FALSE	FALSE	FALSE	FALSE
p05	2015	06	09	10	51	f	21	r	33.143570294	4	40	0.400207084953	1.42895369887	visual	left	right	visual	NA	60.6716288021	FALSE	FALSE	FALSE	FALSE
p05	2015	06	09	10	51	f	21	r	2.83764372603	4	41	0.635746303014	1.34526847206	tactile	right	left	tactice	NA	207.414293662	FALSE	FALSE	FALSE	FALSE
p05	2015	06	09	10	51	f	21	r	2.83764372603	4	42	0.423983656918	1.44201952912	tactile	right	left	tactice	voice	NA	FALSE	FALSE	FALSE	FALSE
p05	2015	06	09	10	51	f	21	r	2.83764372603	4	43	0.456063379068	1.22441866841	visual	left	left	tactice	NA	169.667080278	FALSE	FALSE	FALSE	FALSE
p05	2015	06	09	10	51	f	21	r	2.83764372603	4	44	0.405510978075	0.975948427874	visual	left	left	visual	NA	52.7090948308	FALSE	FALSE	FALSE	FALSE
p05	2015	06	09	10	51	f	21	r	2.83764372603	4	45	0.395144788083	1.46657879196	tactile	left	right	tactice	NA	7.92246370111	FALSE	FALSE	FALSE	FALSE
p05	2015	06	09	10	51	f	21	r	2.83764372603	4	46	0.39547088102	1.02290134563	visual	left	right	tactice	NA	212.080743047	FALSE	FALSE	FALSE	FALSE
p05	2015	06	09	10	51	f	21	r	2.83764372603	4	47	0.399946677033	1.36020155653	visual	right	left	visual	NA	110.543564195	FALSE	FALSE	FALSE	TRUE
p05	2015	06	09	10	51	f	21	r	2.83764372603	4	48	0.392334037926	1.48950515387	visual	right	catch	visual	NA	149.562979816	FALSE	FALSE	FALSE	FALSE
p05	2015	06	09	10	51	f	21	r	2.83764372603	4	49	0.409760190058	0.550985507323	visual	right	right	visual	NA	261.535532423	FALSE	FALSE	FALSE	FALSE
p05	2015	06	09	10	51	f	21	r	2.83764372603	4	50	1.38626080099	1.07524394837	visual	right	left	tactice	NA	104.536075261	FALSE	FALSE	FALSE	FALSE
p05	2015	06	09	10	51	f	21	r	2.83764372603	4	51	0.385602592025	0.939032828392	tactile	left	left	tactice	voice	NA	FALSE	FALSE	FALSE	FALSE
p05	2015	06	09	10	51	f	21	r	2.83764372603	4	52	0.415252208943	0.578640915214	tactile	left	left	tactice	NA	252.071412513	FALSE	FALSE	FALSE	FALSE
p05	2015	06	09	10	51	f	21	r	2.83764372603	4	53	0.407658883953	0.517906804256	tactile	right	left	tactice	NA	216.943326523	FALSE	FALSE	FALSE	FALSE
p05	2015	06	09	10	51	f	21	r	2.83764372603	4	54	0.413451813976	1.1172276186	visual	right	right	tactice	voice	NA	FALSE	FALSE	FALSE	FALSE
p05	2015	06	09	10	51	f	21	r	2.83764372603	4	55	0.392543748021	0.674982638515	tactile	right	right	tactice	NA	404.828533181	FALSE	FALSE	FALSE	FALSE
p05	2015	06	09	10	51	f	21	r	2.83764372603	4	56	1.38111020497	0.911576833755	tactile	left	right	visual	NA	106.713786838	FALSE	FALSE	FALSE	FALSE
p05	2015	06	09	10	51	f	21	r	2.83764372603	4	57	1.64840056491	1.15523315951	visual	left	right	tactice	NA	74.5998081984	FALSE	FALSE	FALSE	FALSE
p05	2015	06	09	10	51	f	21	r	2.83764372603	4	58	0.399040041026	1.07508827294	visual	left	right	visual	NA	18.0916017853	FALSE	FALSE	FALSE	FALSE
p05	2015	06	09	10	51	f	21	r	2.83764372603	4	59	0.398057585	1.01537859557	tactile	left	right	visual	NA	60.6908320915	FALSE	FALSE	FALSE	FALSE
p05	2015	06	09	10	51	f	21	r	2.83764372603	4	60	1.28838466108	0.635914622037	visual	left	right	tactice	NA	56.1065528309	FALSE	FALSE	FALSE	FALSE
p05	2015	06	09	10	51	f	21	r	2.83764372603	4	61	0.409830246004	0.531825553289	visual	right	left	visual	NA	140.983963502	FALSE	FALSE	FALSE	FALSE
p05	2015	06	09	10	51	f	21	r	2.83764372603	4	62	0.398153344053	1.28742482181	visual	left	right	tactice	voice	NA	FALSE	FALSE	FALSE	FALSE
p05	2015	06	09	10	51	f	21	r	2.83764372603	4	63	0.415305727045	0.54419147204	tactile	right	left	visual	NA	418.282748782	FALSE	FALSE	FALSE	TRUE
p05	2015	06	09	10	51	f	21	r	2.83764372603	4	64	0.396153911017	0.767053894653	tactile	right	right	tactice	voice	NA	FALSE	FALSE	FALSE	FALSE
p05	2015	06	09	10	51	f	21	r	2.83764372603	4	65	0.418186653988	0.886078520172	visual	right	left	tactice	NA	315.989025519	FALSE	FALSE	FALSE	FALSE
p05	2015	06	09	10	51	f	21	r	2.83764372603	4	66	0.401165665011	0.697557938963	tactile	right	left	visual	NA	94.8733646655	FALSE	FALSE	FALSE	FALSE
p05	2015	06	09	10	51	f	21	r	2.83764372603	4	67	0.41886940191	0.79409360524	tactile	right	left	tactice	NA	66.78145146	FALSE	FALSE	FALSE	FALSE
p05	2015	06	09	10	51	f	21	r	2.83764372603	4	68	0.399881032063	1.05611584155	tactile	left	right	visual	NA	15.4709680937	FALSE	FALSE	FALSE	FALSE
p05	2015	06	09	10	51	f	21	r	2.83764372603	4	69	0.396679164958	0.617189906835	tactile	right	right	visual	NA	106.98749579	FALSE	FALSE	FALSE	FALSE
p05	2015	06	09	10	51	f	21	r	2.83764372603	4	70	0.398001716007	1.44699954134	visual	left	catch	tactice	NA	194.303621305	FALSE	FALSE	FALSE	FALSE
p05	2015	06	09	10	51	f	21	r	2.83764372603	4	71	1.524928345	1.21687469418	tactile	right	right	tactice	NA	107.308344566	FALSE	FALSE	FALSE	FALSE
p05	2015	06	09	10	51	f	21	r	2.83764372603	4	72	0.39458127704	1.42456632154	visual	left	right	tactice	NA	69.3652752088	FALSE	FALSE	FALSE	FALSE
p05	2015	06	09	10	51	f	21	r	2.83764372603	4	73	1.12822485599	0.528771815827	tactile	left	left	visual	NA	439.982527867	FALSE	FALSE	FALSE	FALSE
p05	2015	06	09	10	51	f	21	r	2.83764372603	4	74	0.402025974006	1.0496563871	tactile	right	right	visual	voice	NA	FALSE	FALSE	FALSE	FALSE
p05	2015	06	09	10	51	f	21	r	2.83764372603	4	75	0.415006080992	0.919533537099	visual	left	right	visual	NA	119.081711629	FALSE	FALSE	FALSE	FALSE
p05	2015	06	09	10	51	f	21	r	2.83764372603	4	76	0.39990615705	0.875549218269	tactile	left	catch	tactice	NA	238.335975446	FALSE	FALSE	FALSE	FALSE
p05	2015	06	09	10	51	f	21	r	2.83764372603	4	77	1.51232710108	0.500215674013	tactile	right	right	visual	NA	280.666605686	FALSE	FALSE	FALSE	TRUE
p05	2015	06	09	10	51	f	21	r	2.83764372603	4	78	1.61980022397	0.694609533797	visual	right	left	visual	NA	216.882887878	FALSE	FALSE	FALSE	FALSE
p05	2015	06	09	10	51	f	21	r	2.83764372603	4	79	0.427545389044	0.771344005093	tactile	right	right	tactice	NA	36.1047466286	FALSE	FALSE	FALSE	FALSE
p05	2015	06	09	10	51	f	21	r	2.83764372603	4	80	4.56098359299	0.530835544749	tactile	left	right	visual	NA	171.546754893	FALSE	FALSE	FALSE	TRUE
p05	2015	06	09	10	51	f	21	r	2.42771366797	4	81	1.02636877808	0.77549102384	visual	right	catch	tactice	NA	NA	FALSE	FALSE	FALSE	TRUE
p05	2015	06	09	10	51	f	21	r	2.42771366797	4	82	0.663013127982	1.40268932749	visual	left	left	tactice	NA	265.233702143	FALSE	FALSE	FALSE	FALSE
p05	2015	06	09	10	51	f	21	r	2.42771366797	4	83	0.491246287012	0.582731484151	visual	right	left	visual	NA	121.890469571	FALSE	FALSE	TRUE	TRUE
p05	2015	06	09	10	51	f	21	r	2.42771366797	4	84	0.403101650998	0.637849399375	tactile	left	right	tactice	NA	45.5836043693	FALSE	FALSE	FALSE	FALSE
p05	2015	06	09	10	51	f	21	r	2.42771366797	4	85	0.402272131993	1.26660647189	visual	right	right	tactice	NA	427.407512907	FALSE	FALSE	FALSE	FALSE
p05	2015	06	09	10	51	f	21	r	2.42771366797	4	86	0.406558056013	0.535782474252	visual	right	left	visual	NA	202.71664043	FALSE	FALSE	FALSE	FALSE
p05	2015	06	09	10	51	f	21	r	2.42771366797	4	87	0.397652735934	0.754301662203	visual	left	left	visual	NA	10.7117855223	FALSE	FALSE	FALSE	TRUE
p05	2015	06	09	10	51	f	21	r	2.42771366797	4	88	0.402207380976	0.84229965717	visual	right	left	tactice	voice	NA	FALSE	FALSE	FALSE	FALSE
p05	2015	06	09	10	51	f	21	r	2.42771366797	4	89	0.464988542022	1.4577511675	tactile	left	left	tactice	NA	210.871616262	FALSE	FALSE	FALSE	FALSE
p05	2015	06	09	10	51	f	21	r	2.42771366797	4	90	0.443291957024	1.45495868563	visual	left	left	tactice	NA	207.162752049	FALSE	FALSE	FALSE	FALSE
p05	2015	06	09	10	51	f	21	r	2.42771366797	4	91	0.401758146007	1.04439325452	tactile	right	right	visual	voice	NA	FALSE	FALSE	FALSE	FALSE
p05	2015	06	09	10	51	f	21	r	2.42771366797	4	92	0.405147386948	0.507657601487	visual	right	right	visual	NA	307.37528624	FALSE	FALSE	FALSE	FALSE
p05	2015	06	09	10	51	f	21	r	2.42771366797	4	93	0.392475991044	1.27009907317	visual	left	left	visual	NA	25.2293375088	FALSE	FALSE	FALSE	FALSE
p05	2015	06	09	10	51	f	21	r	2.42771366797	4	94	0.396010925993	0.672328386578	tactile	right	right	visual	NA	155.212722253	FALSE	FALSE	FALSE	FALSE
p05	2015	06	09	10	51	f	21	r	2.42771366797	4	95	1.30166260002	0.889630200441	visual	right	right	visual	NA	105.03114725	FALSE	FALSE	FALSE	FALSE
p05	2015	06	09	10	51	f	21	r	2.42771366797	4	96	0.417876473046	0.624898242392	tactile	left	right	tactice	voice	NA	FALSE	FALSE	FALSE	FALSE
p05	2015	06	09	10	51	f	21	r	2.42771366797	4	97	0.428837361047	0.796139432638	visual	right	right	tactice	NA	290.687316097	FALSE	FALSE	FALSE	FALSE
p05	2015	06	09	10	51	f	21	r	2.42771366797	4	98	0.424528945936	1.00250871854	visual	left	right	tactice	voice	NA	FALSE	FALSE	FALSE	FALSE
p05	2015	06	09	10	51	f	21	r	2.42771366797	4	99	0.422873878968	0.975840177575	visual	right	left	visual	NA	89.9284740444	FALSE	FALSE	FALSE	FALSE
p05	2015	06	09	10	51	f	21	r	2.42771366797	4	100	0.399447815958	0.809648831014	tactile	left	catch	visual	NA	41.2322407356	FALSE	FALSE	FALSE	FALSE
p05	2015	06	09	10	51	f	21	r	2.42771366797	4	101	0.392098680022	1.15893450449	visual	left	left	visual	voice	NA	FALSE	FALSE	FALSE	FALSE
p05	2015	06	09	10	51	f	21	r	2.42771366797	4	102	0.407774543972	0.847356866562	visual	left	right	tactice	NA	189.186337171	FALSE	FALSE	FALSE	FALSE
p05	2015	06	09	10	51	f	21	r	2.42771366797	4	103	0.445025139023	0.733838751842	tactile	right	right	visual	NA	607.026746962	FALSE	FALSE	FALSE	FALSE
p05	2015	06	09	10	51	f	21	r	2.42771366797	4	104	0.401558918995	1.22091138185	visual	left	left	tactice	NA	64.6718578646	FALSE	FALSE	FALSE	FALSE
p05	2015	06	09	10	51	f	21	r	2.42771366797	4	105	0.403259883984	1.12055222059	visual	left	right	visual	NA	44.6685841307	FALSE	FALSE	FALSE	FALSE
p05	2015	06	09	10	51	f	21	r	2.42771366797	4	106	0.404878110974	0.571985593183	tactile	right	right	visual	NA	259.890034562	FALSE	FALSE	FALSE	FALSE
p05	2015	06	09	10	51	f	21	r	2.42771366797	4	107	0.4159061471	1.00909496717	visual	left	right	visual	NA	109.521973529	FALSE	FALSE	FALSE	FALSE
p05	2015	06	09	10	51	f	21	r	2.42771366797	4	108	0.398101520957	1.31971870164	visual	left	left	visual	NA	151.042336016	FALSE	FALSE	FALSE	TRUE
p05	2015	06	09	10	51	f	21	r	2.42771366797	4	109	0.39888156997	1.29850825247	visual	right	right	tactice	NA	70.1407592278	FALSE	FALSE	FALSE	FALSE
p05	2015	06	09	10	51	f	21	r	2.42771366797	4	110	0.401743539027	0.523151060483	tactile	right	left	visual	NA	361.576254247	FALSE	FALSE	FALSE	FALSE
p05	2015	06	09	10	51	f	21	r	2.42771366797	4	111	0.400376924896	1.49600867098	tactile	left	left	visual	NA	506.480002659	FALSE	FALSE	FALSE	FALSE
p05	2015	06	09	10	51	f	21	r	2.42771366797	4	112	0.403570402996	1.02483305133	tactile	left	right	visual	NA	95.468147425	FALSE	FALSE	FALSE	TRUE
p05	2015	06	09	10	51	f	21	r	2.42771366797	4	113	0.399469198077	1.47744116789	tactile	left	right	visual	voice	NA	FALSE	FALSE	FALSE	FALSE
p05	2015	06	09	10	51	f	21	r	2.42771366797	4	114	0.453609371907	0.753668707514	tactile	right	catch	visual	NA	314.670272171	FALSE	FALSE	FALSE	FALSE
p05	2015	06	09	10	51	f	21	r	2.42771366797	4	115	0.397681717062	1.42870662512	visual	right	right	visual	NA	165.84482661	FALSE	FALSE	FALSE	FALSE
p05	2015	06	09	10	51	f	21	r	2.42771366797	4	116	0.394956758013	1.33445696244	tactile	right	right	visual	NA	87.2400163207	FALSE	FALSE	FALSE	FALSE
p05	2015	06	09	10	51	f	21	r	2.42771366797	4	117	0.393450123025	1.28091462541	tactile	left	right	tactice	NA	254.482109332	FALSE	FALSE	FALSE	TRUE
p05	2015	06	09	10	51	f	21	r	2.42771366797	4	118	0.406286157086	1.41779108142	visual	left	right	visual	NA	325.040924246	FALSE	FALSE	FALSE	FALSE
p05	2015	06	09	10	51	f	21	r	2.42771366797	4	119	0.395885919919	0.595828605774	visual	right	left	tactice	NA	127.598302905	FALSE	FALSE	FALSE	FALSE
p05	2015	06	09	10	51	f	21	r	2.42771366797	4	120	0.406438581063	1.29013749585	visual	left	right	visual	NA	182.173457928	FALSE	FALSE	FALSE	FALSE
p05	2015	06	09	10	51	f	21	r	2.71736367303	4	121	1.15831376496	1.20766747972	visual	left	right	tactice	NA	151.597118005	FALSE	FALSE	FALSE	FALSE
p05	2015	06	09	10	51	f	21	r	2.71736367303	4	122	0.447967856075	0.655080958536	visual	left	left	tactice	NA	273.714121198	FALSE	FALSE	FALSE	FALSE
p05	2015	06	09	10	51	f	21	r	2.71736367303	4	123	0.409433091059	0.800048126422	visual	right	right	tactice	NA	51.1196954176	FALSE	FALSE	FALSE	FALSE
p05	2015	06	09	10	51	f	21	r	2.71736367303	4	124	0.411281008041	1.01665378603	tactile	right	left	tactice	NA	115.771660581	FALSE	FALSE	FALSE	FALSE
p05	2015	06	09	10	51	f	21	r	2.71736367303	4	125	0.397095269989	1.13351259587	visual	left	right	visual	NA	262.83431577	FALSE	FALSE	FALSE	FALSE
p05	2015	06	09	10	51	f	21	r	2.71736367303	4	126	0.394734208938	0.726818051891	visual	right	right	visual	NA	169.650566764	FALSE	FALSE	FALSE	FALSE
p05	2015	06	09	10	51	f	21	r	2.71736367303	4	127	0.40471978602	1.12632780358	visual	right	left	tactice	voice	NA	FALSE	FALSE	FALSE	FALSE
p05	2015	06	09	10	51	f	21	r	2.71736367303	4	128	0.475111125968	1.05153178825	tactile	right	right	visual	NA	57.9041314777	FALSE	FALSE	FALSE	FALSE
p05	2015	06	09	10	51	f	21	r	2.71736367303	4	129	0.393115025014	1.15054226663	tactile	right	left	tactice	NA	252.922897111	FALSE	FALSE	FALSE	FALSE
p05	2015	06	09	10	51	f	21	r	2.71736367303	4	130	0.407950112945	0.950772352124	visual	right	right	visual	NA	181.71377352	FALSE	FALSE	FALSE	FALSE
p05	2015	06	09	10	51	f	21	r	2.71736367303	4	131	1.19927019998	1.23265798891	tactile	left	right	tactice	voice	NA	FALSE	FALSE	FALSE	FALSE
p05	2015	06	09	10	51	f	21	r	2.71736367303	4	132	0.480595605099	0.871735319842	tactile	left	catch	visual	NA	186.340519809	FALSE	FALSE	FALSE	FALSE
p05	2015	06	09	10	51	f	21	r	2.71736367303	4	133	0.402871910017	1.32556094956	tactile	left	left	tactice	voice	NA	FALSE	FALSE	FALSE	FALSE
p05	2015	06	09	10	51	f	21	r	2.71736367303	4	134	0.408266317914	1.29930029943	tactile	right	left	visual	NA	155.291911331	FALSE	FALSE	FALSE	FALSE
p05	2015	06	09	10	51	f	21	r	2.71736367303	4	135	0.400196869043	1.17996494443	tactile	right	right	tactice	NA	7.51349632628	FALSE	FALSE	FALSE	FALSE
p05	2015	06	09	10	51	f	21	r	2.71736367303	4	136	0.393965914031	0.837670130855	tactile	left	left	tactice	NA	93.1464488385	FALSE	FALSE	FALSE	FALSE
p05	2015	06	09	10	51	f	21	r	2.71736367303	4	137	0.407613390009	0.749402310236	tactile	right	left	visual	NA	123.028194532	FALSE	FALSE	FALSE	FALSE
p05	2015	06	09	10	51	f	21	r	2.71736367303	4	138	0.39343104593	1.05679836241	visual	right	right	tactice	NA	217.212905292	FALSE	FALSE	FALSE	FALSE
p05	2015	06	09	10	51	f	21	r	2.71736367303	4	139	0.395153912017	1.46162030028	tactile	right	left	tactice	NA	48.261374468	FALSE	FALSE	FALSE	FALSE
p05	2015	06	09	10	51	f	21	r	2.71736367303	4	140	0.393507168046	0.809462835129	tactile	right	left	visual	NA	263.26537272	FALSE	FALSE	FALSE	FALSE
p05	2015	06	09	10	51	f	21	r	2.71736367303	4	141	1.47704344708	0.786383615227	visual	left	left	tactice	NA	94.7660964448	FALSE	FALSE	FALSE	FALSE
p05	2015	06	09	10	51	f	21	r	2.71736367303	4	142	0.432949331007	0.943322160909	visual	left	left	tactice	NA	124.639050919	FALSE	FALSE	FALSE	FALSE
p05	2015	06	09	10	51	f	21	r	2.71736367303	4	143	0.410241699079	1.00948314519	tactile	left	left	visual	voice	NA	FALSE	FALSE	FALSE	FALSE
p05	2015	06	09	10	51	f	21	r	2.71736367303	4	144	0.466657720972	0.65027919853	visual	right	right	visual	NA	503.217895166	FALSE	FALSE	FALSE	FALSE
p05	2015	06	09	10	51	f	21	r	2.71736367303	4	145	0.394644476008	0.886459826728	tactile	left	left	tactice	voice	NA	FALSE	FALSE	FALSE	FALSE
p05	2015	06	09	10	51	f	21	r	2.71736367303	4	146	0.406753818039	1.14520242426	tactile	right	right	tactice	NA	90.9982224694	FALSE	FALSE	FALSE	FALSE
p05	2015	06	09	10	51	f	21	r	2.71736367303	4	147	0.392267349991	0.893437457767	visual	right	left	visual	NA	139.907963923	FALSE	FALSE	FALSE	FALSE
p05	2015	06	09	10	51	f	21	r	2.71736367303	4	148	0.405664783088	1.19631101577	tactile	left	left	visual	NA	27.4984958814	FALSE	FALSE	FALSE	FALSE
p05	2015	06	09	10	51	f	21	r	2.71736367303	4	149	0.399444520939	1.13728809412	tactile	left	left	visual	NA	167.537530535	FALSE	FALSE	FALSE	FALSE
p05	2015	06	09	10	51	f	21	r	2.71736367303	4	150	0.405413318076	1.20242735467	visual	right	right	visual	NA	130.131214042	FALSE	FALSE	FALSE	FALSE
p05	2015	06	09	10	51	f	21	r	2.71736367303	4	151	1.15607032296	0.751420723318	visual	right	right	tactice	NA	260.390592506	FALSE	FALSE	FALSE	FALSE
p05	2015	06	09	10	51	f	21	r	2.71736367303	4	152	0.412385880947	1.28704860899	tactile	right	catch	visual	voice	NA	FALSE	FALSE	FALSE	FALSE
p05	2015	06	09	10	51	f	21	r	2.71736367303	4	153	1.14711498504	1.14911583144	visual	right	catch	tactice	NA	118.778620264	FALSE	FALSE	FALSE	FALSE
p05	2015	06	09	10	51	f	21	r	2.71736367303	4	154	0.400475766975	1.49433566033	visual	right	right	visual	NA	58.1361483783	FALSE	FALSE	FALSE	FALSE
p05	2015	06	09	10	51	f	21	r	2.71736367303	4	155	0.451444335049	1.40432104654	visual	left	left	tactice	NA	52.4206131231	FALSE	FALSE	FALSE	FALSE
p05	2015	06	09	10	51	f	21	r	2.71736367303	4	156	0.402626110008	1.25201206246	tactile	right	right	tactice	NA	9.70504130237	FALSE	FALSE	FALSE	FALSE
p05	2015	06	09	10	51	f	21	r	2.71736367303	4	157	0.434815412969	0.543321181294	tactile	right	catch	tactice	NA	201.132952352	FALSE	FALSE	FALSE	FALSE
p05	2015	06	09	10	51	f	21	r	2.71736367303	4	158	0.413733413909	0.549591866253	visual	left	right	visual	NA	196.472786483	FALSE	FALSE	FALSE	FALSE
p05	2015	06	09	10	51	f	21	r	2.71736367303	4	159	0.401040566969	0.558792657131	tactile	left	left	tactice	NA	64.0893165255	FALSE	FALSE	FALSE	FALSE
p05	2015	06	09	10	51	f	21	r	2.71736367303	4	160	0.399111183011	0.762198424958	tactile	left	left	visual	NA	0.197424786165	FALSE	FALSE	FALSE	FALSE
p05	2015	06	09	10	51	f	21	r	25.835687857	5	1	0.840181828942	1.38360066517	tactile	right	catch	visual	NA	159.667526605	FALSE	FALSE	FALSE	FALSE
p05	2015	06	09	10	51	f	21	r	25.835687857	5	2	0.445218347013	0.900734146189	visual	left	left	tactice	NA	100.943355588	FALSE	FALSE	FALSE	FALSE
p05	2015	06	09	10	51	f	21	r	25.835687857	5	3	0.402927379939	0.544725642291	visual	right	left	visual	NA	203.158452408	FALSE	FALSE	FALSE	FALSE
p05	2015	06	09	10	51	f	21	r	25.835687857	5	4	0.401421644958	0.89720574254	tactile	right	right	visual	voice	NA	FALSE	FALSE	FALSE	FALSE
p05	2015	06	09	10	51	f	21	r	25.835687857	5	5	0.400038938969	0.569588816728	visual	left	left	visual	NA	210.15465993	FALSE	FALSE	FALSE	FALSE
p05	2015	06	09	10	51	f	21	r	25.835687857	5	6	0.403466006042	1.42950069153	tactile	right	right	tactice	voice	NA	FALSE	FALSE	FALSE	FALSE
p05	2015	06	09	10	51	f	21	r	25.835687857	5	7	0.402138049947	0.706527968978	visual	left	catch	visual	NA	112.86284076	FALSE	FALSE	FALSE	FALSE
p05	2015	06	09	10	51	f	21	r	25.835687857	5	8	0.405143952928	0.718293729199	visual	left	right	visual	NA	55.1617974415	FALSE	FALSE	FALSE	FALSE
p05	2015	06	09	10	51	f	21	r	25.835687857	5	9	0.400339212967	1.3478517278	tactile	left	left	visual	voice	NA	FALSE	FALSE	FALSE	FALSE
p05	2015	06	09	10	51	f	21	r	25.835687857	5	10	0.438017261098	0.503796032208	visual	right	right	visual	NA	510.264706565	FALSE	FALSE	FALSE	FALSE
p05	2015	06	09	10	51	f	21	r	25.835687857	5	11	0.40145202796	0.732173533732	visual	left	right	tactice	voice	NA	FALSE	FALSE	FALSE	FALSE
p05	2015	06	09	10	51	f	21	r	25.835687857	5	12	0.452654891997	0.570891919104	visual	left	left	visual	NA	202.040184638	FALSE	FALSE	FALSE	FALSE
p05	2015	06	09	10	51	f	21	r	25.835687857	5	13	0.412688505952	0.786440261307	visual	right	left	visual	NA	104.12005242	FALSE	FALSE	FALSE	TRUE
p05	2015	06	09	10	51	f	21	r	25.835687857	5	14	0.395087882993	1.08219326768	visual	right	left	visual	NA	3.93504207022	FALSE	FALSE	FALSE	TRUE
p05	2015	06	09	10	51	f	21	r	25.835687857	5	15	0.404976429068	1.16462071697	tactile	right	right	tactice	NA	95.1950997114	FALSE	FALSE	FALSE	TRUE
p05	2015	06	09	10	51	f	21	r	25.835687857	5	16	0.397153402097	0.855921690216	visual	left	left	tactice	NA	76.3094694121	FALSE	FALSE	FALSE	FALSE
p05	2015	06	09	10	51	f	21	r	25.835687857	5	17	0.399161963025	0.848615867364	tactile	right	catch	tactice	voice	NA	FALSE	FALSE	FALSE	FALSE
p05	2015	06	09	10	51	f	21	r	25.835687857	5	18	0.407484998927	1.36572670271	visual	left	catch	visual	NA	121.451516985	FALSE	FALSE	FALSE	FALSE
p05	2015	06	09	10	51	f	21	r	25.835687857	5	19	0.402357688989	0.581789364045	visual	right	right	visual	NA	230.343105737	FALSE	FALSE	FALSE	FALSE
p05	2015	06	09	10	51	f	21	r	25.835687857	5	20	0.411721742013	1.18636331564	visual	left	left	visual	voice	NA	FALSE	FALSE	FALSE	FALSE
p05	2015	06	09	10	51	f	21	r	25.835687857	5	21	0.399792653974	0.526310435366	tactile	left	left	visual	NA	294.79322338	FALSE	FALSE	FALSE	FALSE
p05	2015	06	09	10	51	f	21	r	25.835687857	5	22	0.402688289993	1.38819473768	visual	right	left	tactice	NA	26.9119879231	FALSE	FALSE	FALSE	FALSE
p05	2015	06	09	10	51	f	21	r	25.835687857	5	23	1.15513635799	0.694918583465	tactile	right	left	visual	NA	128.713641316	FALSE	FALSE	FALSE	FALSE
