id	year	month	day	hour	minute	sex	age	handedness	message_viewing_time	block	trial_num	trial_initiation_time	fixation_duration	cue_modality	cue_location	target_location	target_modality	target_response_key	target_response_rt	pre_target_response	feedback_response	recalibration	blink	saccade	biggest_small_saccade
p08	2015	06	16	12	33	f	21	l	611.744181873	practice	1	12.1794333421	1.04266341655	tactile	right	catch	visual	NA	NA	FALSE	FALSE	FALSE	FALSE	TRUE	0
p08	2015	06	16	12	33	f	21	l	611.744181873	practice	2	4.28457725118	0.734479082198	tactile	left	right	visual	NA	NA	FALSE	FALSE	FALSE	TRUE	FALSE	0
p08	2015	06	16	12	33	f	21	l	611.744181873	practice	3	1.36801932915	1.18802922769	tactile	left	left	tactile	voice	NA	TRUE	FALSE	FALSE	FALSE	FALSE	0
p08	2015	06	16	12	33	f	21	l	611.744181873	practice	4	32.235374711	0.503340704812	tactile	left	left	tactile	NA	652.101451764	FALSE	FALSE	FALSE	FALSE	FALSE	0
p08	2015	06	16	12	33	f	21	l	611.744181873	practice	5	43.196700339	0.740172192129	visual	right	left	tactile	NA	NA	FALSE	FALSE	FALSE	FALSE	TRUE	0
p08	2015	06	16	12	33	f	21	l	611.744181873	practice	6	2.52380133606	1.23852045145	tactile	left	left	visual	NA	NA	FALSE	FALSE	FALSE	FALSE	TRUE	0
p08	2015	06	16	12	33	f	21	l	611.744181873	practice	7	2.963192628	0.733551013262	visual	right	left	visual	NA	573.453250341	FALSE	FALSE	FALSE	FALSE	FALSE	0
p08	2015	06	16	12	33	f	21	l	611.744181873	practice	8	1.91203034902	0.739829701855	visual	left	catch	tactile	NA	NA	FALSE	FALSE	FALSE	FALSE	TRUE	0
p08	2015	06	16	12	33	f	21	l	611.744181873	practice	9	1.50309054996	0.949780045412	visual	right	left	tactile	NA	NA	FALSE	FALSE	FALSE	FALSE	TRUE	0
p08	2015	06	16	12	33	f	21	l	611.744181873	practice	10	2.46212718193	1.0062159473	visual	left	left	tactile	NA	447.755551431	FALSE	FALSE	FALSE	FALSE	FALSE	0
p08	2015	06	16	12	33	f	21	l	611.744181873	practice	11	1.64017716213	0.828658628027	tactile	left	right	tactile	NA	730.327602709	FALSE	FALSE	FALSE	FALSE	FALSE	0
p08	2015	06	16	12	33	f	21	l	611.744181873	practice	12	1.21624786104	0.543931680934	visual	right	left	visual	NA	558.869900648	FALSE	FALSE	FALSE	FALSE	FALSE	0
p08	2015	06	16	12	33	f	21	l	611.744181873	practice	13	126.893625666	1.11640613846	tactile	left	right	visual	NA	NA	FALSE	FALSE	FALSE	FALSE	TRUE	0
p08	2015	06	16	12	33	f	21	l	611.744181873	practice	14	4.02777383011	0.884736797586	tactile	right	left	tactile	NA	NA	FALSE	FALSE	FALSE	FALSE	TRUE	0
p08	2015	06	16	12	33	f	21	l	611.744181873	practice	15	3.02889605798	1.28860070787	tactile	right	right	tactile	NA	561.616570689	FALSE	FALSE	FALSE	FALSE	FALSE	0
p08	2015	06	16	12	33	f	21	l	611.744181873	practice	16	2.3987083009	0.531301319983	tactile	right	right	tactile	NA	503.28955939	FALSE	FALSE	FALSE	FALSE	FALSE	0
p08	2015	06	16	12	33	f	21	l	611.744181873	practice	17	15.9515809461	0.548380787945	visual	right	left	tactile	NA	NA	FALSE	FALSE	FALSE	FALSE	TRUE	0
p08	2015	06	16	12	33	f	21	l	611.744181873	practice	18	2.80802103505	1.32583458735	tactile	left	left	visual	NA	NA	FALSE	FALSE	FALSE	FALSE	TRUE	0
p08	2015	06	16	12	33	f	21	l	611.744181873	practice	19	2.46067717206	0.892454439818	tactile	left	left	visual	voice	NA	TRUE	FALSE	FALSE	FALSE	FALSE	0
p08	2015	06	16	12	33	f	21	l	611.744181873	practice	20	13.8909038829	0.599192808169	tactile	right	left	visual	NA	557.894793572	FALSE	FALSE	FALSE	FALSE	FALSE	0
p08	2015	06	16	12	33	f	21	l	611.744181873	practice	21	8.71403745399	1.01988323544	tactile	right	left	tactile	NA	385.955432197	FALSE	FALSE	FALSE	FALSE	FALSE	0
p08	2015	06	16	12	33	f	21	l	611.744181873	practice	22	139.805745118	0.626700278546	tactile	right	catch	visual	NA	NA	FALSE	FALSE	FALSE	FALSE	TRUE	0
p08	2015	06	16	12	33	f	21	l	611.744181873	practice	23	3.53224927885	0.653861918152	visual	left	catch	tactile	NA	NA	FALSE	FALSE	FALSE	FALSE	TRUE	0
p08	2015	06	16	12	33	f	21	l	611.744181873	practice	24	3.66963431891	0.715677085323	tactile	right	left	tactile	NA	960.056751501	FALSE	FALSE	FALSE	FALSE	FALSE	0
p08	2015	06	16	12	33	f	21	l	611.744181873	practice	25	2.01115122112	0.615714729594	visual	left	catch	tactile	NA	NA	FALSE	FALSE	FALSE	FALSE	TRUE	0
p08	2015	06	16	12	33	f	21	l	611.744181873	practice	26	3.07489293301	1.14745080822	visual	left	left	visual	NA	NA	FALSE	FALSE	FALSE	FALSE	TRUE	0
p08	2015	06	16	12	33	f	21	l	611.744181873	practice	27	2.28539590118	1.31943603987	visual	left	left	visual	NA	544.177642791	FALSE	FALSE	FALSE	FALSE	FALSE	0
p08	2015	06	16	12	33	f	21	l	611.744181873	practice	28	152.949943102	0.959477174152	visual	left	left	visual	NA	632.145336596	FALSE	FALSE	FALSE	FALSE	FALSE	0
p08	2015	06	16	12	33	f	21	l	611.744181873	practice	29	5.67967113014	0.926066801328	tactile	right	right	visual	NA	NA	FALSE	FALSE	FALSE	FALSE	TRUE	0
p08	2015	06	16	12	33	f	21	l	611.744181873	practice	30	6.35497017717	0.549675010942	tactile	right	right	visual	NA	729.047831846	FALSE	FALSE	FALSE	FALSE	FALSE	0
p08	2015	06	16	12	33	f	21	l	611.744181873	practice	31	93.46895923	1.26139308486	visual	right	right	tactile	NA	NA	FALSE	FALSE	FALSE	TRUE	FALSE	0
p08	2015	06	16	12	33	f	21	l	611.744181873	practice	32	4.4507612749	1.25817390096	visual	left	left	visual	NA	327.872235794	FALSE	FALSE	FALSE	FALSE	FALSE	0
p08	2015	06	16	12	33	f	21	l	611.744181873	practice	33	7.86602954287	1.14187531009	visual	left	left	tactile	NA	367.659053532	FALSE	FALSE	FALSE	FALSE	FALSE	0
p08	2015	06	16	12	33	f	21	l	611.744181873	practice	34	2.64649407403	0.947925264569	visual	right	left	tactile	NA	NA	FALSE	FALSE	FALSE	FALSE	TRUE	0
p08	2015	06	16	12	33	f	21	l	611.744181873	practice	35	2.13909260905	1.17191636617	visual	right	left	tactile	NA	397.749019554	FALSE	FALSE	FALSE	FALSE	FALSE	0
p08	2015	06	16	12	33	f	21	l	611.744181873	practice	36	7.17768384307	1.49657292296	visual	right	right	tactile	NA	446.185296634	FALSE	FALSE	FALSE	FALSE	FALSE	0
p08	2015	06	16	12	33	f	21	l	611.744181873	practice	37	1.77205088222	1.21358080385	tactile	right	catch	visual	NA	NA	FALSE	FALSE	FALSE	FALSE	FALSE	0
p08	2015	06	16	12	33	f	21	l	611.744181873	practice	38	1.66936980002	0.867389966973	tactile	left	right	visual	NA	464.849593816	FALSE	FALSE	FALSE	FALSE	FALSE	0
p08	2015	06	16	12	33	f	21	l	611.744181873	practice	39	1.71641918202	0.67360865363	tactile	left	right	visual	NA	487.519868882	FALSE	FALSE	FALSE	FALSE	FALSE	0
p08	2015	06	16	12	33	f	21	l	611.744181873	practice	40	1.38188641216	1.27307184092	tactile	right	left	tactile	NA	NA	FALSE	FALSE	FALSE	FALSE	TRUE	0
p08	2015	06	16	12	33	f	21	l	75.7960299139	practice	41	53.3143227221	1.39686741369	visual	left	catch	tactile	NA	NA	FALSE	FALSE	FALSE	FALSE	FALSE	0
p08	2015	06	16	12	33	f	21	l	75.7960299139	practice	42	2.34160070494	0.890485945899	visual	right	left	tactile	NA	490.599395707	FALSE	FALSE	FALSE	FALSE	FALSE	0
p08	2015	06	16	12	33	f	21	l	75.7960299139	practice	43	1.7375189669	0.927503584125	tactile	right	left	tactile	NA	497.7552942	FALSE	FALSE	FALSE	FALSE	FALSE	0
p08	2015	06	16	12	33	f	21	l	75.7960299139	practice	44	5.60602150694	1.46780977709	visual	right	left	visual	NA	502.3844596	FALSE	FALSE	FALSE	FALSE	FALSE	0
p08	2015	06	16	12	33	f	21	l	75.7960299139	practice	45	1.38202955783	0.929130242504	visual	left	left	visual	NA	535.490190145	FALSE	FALSE	FALSE	FALSE	FALSE	0
p08	2015	06	16	12	33	f	21	l	75.7960299139	practice	46	1.46169158118	1.13029788278	tactile	right	left	tactile	NA	416.475408943	FALSE	FALSE	FALSE	FALSE	FALSE	0
p08	2015	06	16	12	33	f	21	l	75.7960299139	practice	47	1.27803283511	1.06189385364	visual	left	right	tactile	NA	365.578954108	FALSE	FALSE	FALSE	FALSE	FALSE	0
p08	2015	06	16	12	33	f	21	l	75.7960299139	practice	48	1.69370455598	0.982032494831	visual	left	left	tactile	NA	309.254557826	FALSE	FALSE	FALSE	FALSE	FALSE	0
p08	2015	06	16	12	33	f	21	l	75.7960299139	practice	49	1.64066068595	1.48361523134	tactile	left	left	visual	NA	452.112715458	FALSE	FALSE	FALSE	FALSE	FALSE	0
p08	2015	06	16	12	33	f	21	l	75.7960299139	practice	50	1.32998733781	1.4910202116	visual	right	left	tactile	NA	360.229996964	FALSE	FALSE	FALSE	FALSE	FALSE	0
p08	2015	06	16	12	33	f	21	l	75.7960299139	practice	51	1.32878190395	0.58915822092	visual	right	right	tactile	NA	891.258760821	FALSE	FALSE	FALSE	FALSE	FALSE	0
p08	2015	06	16	12	33	f	21	l	75.7960299139	practice	52	1.13301934581	1.48183043562	tactile	left	left	visual	NA	359.568592161	FALSE	FALSE	FALSE	FALSE	FALSE	0
p08	2015	06	16	12	33	f	21	l	75.7960299139	practice	53	1.08571834001	1.05603988115	tactile	left	right	tactile	NA	395.019091433	FALSE	FALSE	FALSE	FALSE	FALSE	0
p08	2015	06	16	12	33	f	21	l	75.7960299139	practice	54	1.01342159999	0.84400738183	visual	left	right	tactile	NA	338.234289549	FALSE	FALSE	FALSE	FALSE	FALSE	0
p08	2015	06	16	12	33	f	21	l	75.7960299139	practice	55	1.04053020081	1.47787696578	tactile	right	left	tactile	NA	297.793671722	FALSE	FALSE	FALSE	FALSE	FALSE	0
p08	2015	06	16	12	33	f	21	l	75.7960299139	practice	56	1.03001330886	0.682533861159	visual	right	left	tactile	NA	431.156774517	FALSE	FALSE	FALSE	FALSE	FALSE	0
p08	2015	06	16	12	33	f	21	l	75.7960299139	practice	57	1.621804266	1.02737743693	visual	right	catch	visual	NA	NA	FALSE	FALSE	FALSE	FALSE	FALSE	0
p08	2015	06	16	12	33	f	21	l	75.7960299139	practice	58	2.01420547697	1.14470446403	visual	right	right	visual	NA	513.264967594	FALSE	FALSE	FALSE	FALSE	FALSE	0
p08	2015	06	16	12	33	f	21	l	22.385887492	2	1	18.7963927828	1.07217358587	visual	left	left	visual	NA	454.803788802	FALSE	FALSE	FALSE	FALSE	FALSE	0
p08	2015	06	16	12	33	f	21	l	22.385887492	2	2	2.012182398	0.97619287624	visual	right	right	tactile	NA	429.606484482	FALSE	FALSE	FALSE	FALSE	FALSE	0
p08	2015	06	16	12	33	f	21	l	22.385887492	2	3	2.00555460714	1.33382012241	visual	right	catch	tactile	NA	NA	FALSE	FALSE	FALSE	FALSE	FALSE	0
p08	2015	06	16	12	33	f	21	l	22.385887492	2	4	1.25404621102	0.661040027275	visual	left	left	visual	NA	647.805018583	FALSE	FALSE	FALSE	FALSE	FALSE	0
p08	2015	06	16	12	33	f	21	l	22.385887492	2	5	1.20116094709	1.46858698603	tactile	left	right	visual	NA	497.407400748	FALSE	FALSE	FALSE	FALSE	FALSE	0
p08	2015	06	16	12	33	f	21	l	22.385887492	2	6	1.03672202397	0.559804017287	tactile	right	left	tactile	NA	661.015660502	FALSE	FALSE	FALSE	FALSE	FALSE	0
p08	2015	06	16	12	33	f	21	l	22.385887492	2	7	1.42418614798	0.772722284322	visual	left	right	visual	NA	324.385673273	FALSE	FALSE	FALSE	FALSE	TRUE	0
p08	2015	06	16	12	33	f	21	l	22.385887492	2	8	5.91015196708	1.06499379157	tactile	right	left	visual	NA	287.459268002	FALSE	FALSE	FALSE	FALSE	FALSE	0
p08	2015	06	16	12	33	f	21	l	22.385887492	2	9	9.50380344992	0.941082929407	visual	left	right	tactile	NA	302.10723402	FALSE	FALSE	FALSE	FALSE	TRUE	0
p08	2015	06	16	12	33	f	21	l	22.385887492	2	10	12.693744455	1.41699421119	tactile	left	right	tactile	NA	296.751612332	FALSE	FALSE	FALSE	FALSE	FALSE	0
p08	2015	06	16	12	33	f	21	l	22.385887492	2	11	10.306825737	0.981342470915	tactile	left	left	tactile	NA	443.633590592	FALSE	FALSE	FALSE	FALSE	FALSE	0
p08	2015	06	16	12	33	f	21	l	22.385887492	2	12	6.51307687792	1.4759878465	tactile	left	right	visual	NA	351.557464106	FALSE	FALSE	FALSE	FALSE	FALSE	0
p08	2015	06	16	12	33	f	21	l	22.385887492	2	13	6.59951120405	0.557292637582	visual	right	right	tactile	NA	405.646040803	FALSE	FALSE	FALSE	FALSE	FALSE	0
p08	2015	06	16	12	33	f	21	l	22.385887492	2	14	8.72719624708	1.06026306626	visual	left	left	visual	NA	400.025682291	FALSE	FALSE	FALSE	FALSE	FALSE	0
p08	2015	06	16	12	33	f	21	l	22.385887492	2	15	3.45934085501	0.647730515792	visual	right	left	tactile	NA	336.976740975	FALSE	FALSE	FALSE	FALSE	FALSE	0
p08	2015	06	16	12	33	f	21	l	22.385887492	2	16	7.64392192801	0.928538639399	visual	right	left	visual	NA	332.949791336	FALSE	FALSE	FALSE	FALSE	FALSE	0
p08	2015	06	16	12	33	f	21	l	22.385887492	2	17	8.89105869806	0.954010881953	tactile	left	catch	visual	NA	NA	FALSE	FALSE	FALSE	FALSE	TRUE	0
p08	2015	06	16	12	33	f	21	l	22.385887492	2	18	7.95474310103	1.18924763473	tactile	right	left	visual	NA	458.476909902	FALSE	FALSE	FALSE	FALSE	FALSE	0
p08	2015	06	16	12	33	f	21	l	22.385887492	2	19	5.68519960716	0.872482409707	tactile	right	right	visual	NA	471.754960949	FALSE	FALSE	FALSE	FALSE	TRUE	0
p08	2015	06	16	12	33	f	21	l	22.385887492	2	20	4.10949720489	0.81225729207	tactile	left	catch	tactile	NA	NA	FALSE	FALSE	FALSE	FALSE	FALSE	0
p08	2015	06	16	12	33	f	21	l	22.385887492	2	21	108.094009485	0.998812487197	tactile	right	right	tactile	NA	475.532788318	FALSE	FALSE	FALSE	FALSE	FALSE	0
p08	2015	06	16	12	33	f	21	l	22.385887492	2	22	2.15029366896	0.562348128551	tactile	left	right	tactile	NA	452.177144121	FALSE	FALSE	FALSE	FALSE	FALSE	0
p08	2015	06	16	12	33	f	21	l	22.385887492	2	23	1.56895078113	0.853976468115	visual	left	catch	tactile	NA	NA	FALSE	FALSE	FALSE	FALSE	FALSE	0
p08	2015	06	16	12	33	f	21	l	22.385887492	2	24	1.66729376209	1.43562986328	visual	right	right	visual	NA	492.116736248	FALSE	FALSE	FALSE	FALSE	FALSE	0
p08	2015	06	16	12	33	f	21	l	22.385887492	2	25	1.76027125306	1.43260349245	visual	left	right	tactile	NA	343.967872206	FALSE	FALSE	FALSE	FALSE	TRUE	0
p08	2015	06	16	12	33	f	21	l	22.385887492	2	26	2.2681610079	1.16674710326	tactile	left	left	visual	NA	442.767999368	FALSE	FALSE	FALSE	FALSE	FALSE	0
p08	2015	06	16	12	33	f	21	l	22.385887492	2	27	1.56763006398	0.597128512892	visual	left	left	tactile	NA	350.167097757	FALSE	FALSE	FALSE	FALSE	FALSE	0
p08	2015	06	16	12	33	f	21	l	22.385887492	2	28	1.74689269811	0.802541485571	visual	left	right	visual	NA	361.199100967	FALSE	FALSE	FALSE	FALSE	FALSE	0
p08	2015	06	16	12	33	f	21	l	22.385887492	2	29	1.65707596112	0.729030497326	visual	right	left	tactile	NA	300.64323335	FALSE	FALSE	FALSE	FALSE	FALSE	0
p08	2015	06	16	12	33	f	21	l	22.385887492	2	30	1.48045250098	0.870341400409	visual	right	right	tactile	NA	305.955058197	FALSE	FALSE	FALSE	FALSE	FALSE	0
p08	2015	06	16	12	33	f	21	l	22.385887492	2	31	1.31325138896	1.10859836312	tactile	right	catch	tactile	NA	NA	FALSE	FALSE	FALSE	FALSE	FALSE	0
p08	2015	06	16	12	33	f	21	l	22.385887492	2	32	1.59328215104	0.696182402614	visual	left	left	visual	NA	415.061040083	FALSE	FALSE	FALSE	FALSE	FALSE	0
p08	2015	06	16	12	33	f	21	l	22.385887492	2	33	1.57119551487	1.20988709529	visual	right	right	tactile	NA	261.509504402	FALSE	FALSE	FALSE	FALSE	FALSE	0
p08	2015	06	16	12	33	f	21	l	22.385887492	2	34	1.65436830721	1.30403639103	tactile	left	right	tactile	voice	NA	TRUE	FALSE	FALSE	FALSE	FALSE	0
p08	2015	06	16	12	33	f	21	l	22.385887492	2	35	2.27415551292	0.59353063623	visual	left	left	tactile	NA	325.655063381	FALSE	FALSE	FALSE	FALSE	FALSE	0
p08	2015	06	16	12	33	f	21	l	22.385887492	2	36	6.21327693597	1.17215573521	tactile	left	right	visual	NA	331.231157295	FALSE	FALSE	FALSE	FALSE	FALSE	0
p08	2015	06	16	12	33	f	21	l	22.385887492	2	37	19.114340489	1.04056420224	visual	right	catch	visual	NA	NA	FALSE	FALSE	FALSE	FALSE	FALSE	0
p08	2015	06	16	12	33	f	21	l	22.385887492	2	38	2.38676476083	0.993310000829	visual	right	left	visual	NA	474.097582977	FALSE	FALSE	FALSE	FALSE	FALSE	0
p08	2015	06	16	12	33	f	21	l	22.385887492	2	39	5.38495953102	1.1261800523	visual	right	right	visual	NA	449.937305413	FALSE	FALSE	FALSE	FALSE	TRUE	0
p08	2015	06	16	12	33	f	21	l	22.385887492	2	40	1.80810072296	0.813496877132	visual	right	left	visual	NA	337.828287389	FALSE	FALSE	FALSE	FALSE	FALSE	0
p08	2015	06	16	12	33	f	21	l	39.7682664529	2	41	5.894205241	1.36332794307	visual	right	left	visual	NA	343.867347576	FALSE	FALSE	FALSE	FALSE	FALSE	0
p08	2015	06	16	12	33	f	21	l	39.7682664529	2	42	7.20410755882	0.804682671027	tactile	left	catch	tactile	NA	NA	FALSE	FALSE	FALSE	FALSE	FALSE	0
p08	2015	06	16	12	33	f	21	l	39.7682664529	2	43	11.906345956	1.39666302923	tactile	left	left	visual	NA	356.907214504	FALSE	FALSE	FALSE	FALSE	FALSE	0
p08	2015	06	16	12	33	f	21	l	39.7682664529	2	44	7.76482259901	0.718004088895	tactile	right	catch	tactile	NA	NA	FALSE	FALSE	FALSE	FALSE	FALSE	0
p08	2015	06	16	12	33	f	21	l	39.7682664529	2	45	2.97953001503	1.37862395368	visual	left	catch	visual	NA	NA	FALSE	FALSE	FALSE	FALSE	TRUE	0
p08	2015	06	16	12	33	f	21	l	39.7682664529	2	46	3.08760846383	0.71143906317	tactile	right	catch	visual	NA	NA	FALSE	FALSE	FALSE	FALSE	FALSE	0
p08	2015	06	16	12	33	f	21	l	39.7682664529	2	47	3.23581871414	0.551158462133	tactile	right	left	tactile	NA	348.141347524	FALSE	FALSE	FALSE	FALSE	FALSE	0
p08	2015	06	16	12	33	f	21	l	39.7682664529	2	48	12.729408337	0.690860223578	tactile	right	catch	visual	NA	NA	FALSE	FALSE	FALSE	FALSE	FALSE	0
p08	2015	06	16	12	33	f	21	l	39.7682664529	2	49	2.26412557485	1.20725445188	tactile	left	right	visual	NA	387.220293516	FALSE	FALSE	FALSE	FALSE	FALSE	0
p08	2015	06	16	12	33	f	21	l	39.7682664529	2	50	2.285358808	1.14284731649	tactile	right	left	tactile	NA	290.810432052	FALSE	FALSE	FALSE	FALSE	FALSE	0
p08	2015	06	16	12	33	f	21	l	39.7682664529	2	51	2.72077645897	0.55746473622	tactile	left	right	tactile	NA	263.9909063	FALSE	FALSE	FALSE	FALSE	FALSE	0
p08	2015	06	16	12	33	f	21	l	39.7682664529	2	52	1.88755765907	1.01764055557	visual	left	left	tactile	NA	297.037163051	FALSE	FALSE	FALSE	FALSE	FALSE	0
p08	2015	06	16	12	33	f	21	l	39.7682664529	2	53	1.72752111615	0.895758643723	visual	right	left	tactile	NA	257.388355676	FALSE	FALSE	FALSE	FALSE	FALSE	0
p08	2015	06	16	12	33	f	21	l	39.7682664529	2	54	1.75562570291	0.526195609802	visual	left	right	visual	NA	321.576483082	FALSE	FALSE	FALSE	FALSE	FALSE	0
p08	2015	06	16	12	33	f	21	l	39.7682664529	2	55	1.97057508701	1.17081976139	tactile	right	left	tactile	NA	183.347692015	FALSE	FALSE	FALSE	FALSE	FALSE	0
p08	2015	06	16	12	33	f	21	l	39.7682664529	2	56	1.81375237298	0.693724915292	visual	right	left	visual	NA	283.750920324	FALSE	FALSE	FALSE	FALSE	TRUE	0
p08	2015	06	16	12	33	f	21	l	39.7682664529	2	57	2.05208574515	1.21919486204	tactile	left	left	visual	NA	360.773370601	FALSE	FALSE	FALSE	FALSE	FALSE	0
p08	2015	06	16	12	33	f	21	l	39.7682664529	2	58	1.51378888404	1.1913642546	visual	right	right	visual	NA	484.05960016	FALSE	FALSE	FALSE	FALSE	FALSE	0
p08	2015	06	16	12	33	f	21	l	39.7682664529	2	59	1.61900356296	0.635162534185	tactile	right	left	visual	NA	278.643697267	FALSE	FALSE	FALSE	FALSE	FALSE	0
p08	2015	06	16	12	33	f	21	l	39.7682664529	2	60	1.71326012793	1.25142625415	visual	left	right	visual	voice	NA	TRUE	FALSE	FALSE	FALSE	FALSE	0
p08	2015	06	16	12	33	f	21	l	39.7682664529	2	61	2.20802330901	0.740953906507	visual	left	left	tactile	NA	402.051439043	FALSE	FALSE	FALSE	FALSE	TRUE	0
p08	2015	06	16	12	33	f	21	l	39.7682664529	2	62	1.55338060483	1.47793363581	visual	left	left	tactile	NA	341.129485983	FALSE	FALSE	FALSE	FALSE	FALSE	0
p08	2015	06	16	12	33	f	21	l	39.7682664529	2	63	1.53489853698	1.09986549265	tactile	left	right	tactile	NA	261.300446	FALSE	FALSE	FALSE	FALSE	FALSE	0
p08	2015	06	16	12	33	f	21	l	39.7682664529	2	64	1.80327643594	0.565671953469	tactile	left	left	visual	NA	353.737498401	FALSE	FALSE	FALSE	FALSE	FALSE	0
p08	2015	06	16	12	33	f	21	l	39.7682664529	2	65	1.885438625	0.688299550226	tactile	left	right	tactile	voice	NA	TRUE	FALSE	FALSE	FALSE	FALSE	0
p08	2015	06	16	12	33	f	21	l	39.7682664529	2	66	2.11664506001	0.73781981824	visual	left	left	visual	NA	511.422700481	FALSE	FALSE	FALSE	FALSE	FALSE	0
p08	2015	06	16	12	33	f	21	l	39.7682664529	2	67	2.02510954905	0.639461670084	visual	left	right	tactile	NA	281.26853751	FALSE	FALSE	FALSE	FALSE	FALSE	0
p08	2015	06	16	12	33	f	21	l	39.7682664529	2	68	2.05462559615	0.732792130144	visual	left	right	visual	NA	327.127720462	FALSE	FALSE	FALSE	FALSE	FALSE	0
p08	2015	06	16	12	33	f	21	l	39.7682664529	2	69	1.98377308901	1.43193828893	visual	left	catch	tactile	NA	NA	FALSE	FALSE	FALSE	FALSE	FALSE	0
p08	2015	06	16	12	33	f	21	l	39.7682664529	2	70	1.98891394911	1.04165519598	tactile	right	right	tactile	NA	368.295741733	FALSE	FALSE	FALSE	FALSE	FALSE	0
p08	2015	06	16	12	33	f	21	l	39.7682664529	2	71	1.87737749889	0.895889285076	visual	right	right	tactile	NA	267.373857554	FALSE	FALSE	FALSE	FALSE	FALSE	0
p08	2015	06	16	12	33	f	21	l	39.7682664529	2	72	1.85099817789	1.26234025655	visual	left	left	tactile	NA	323.344986187	FALSE	FALSE	FALSE	FALSE	FALSE	0
p08	2015	06	16	12	33	f	21	l	39.7682664529	2	73	1.83007078199	1.13068219821	tactile	right	right	visual	NA	325.929453596	FALSE	FALSE	FALSE	FALSE	FALSE	0
p08	2015	06	16	12	33	f	21	l	39.7682664529	2	74	1.76142149605	1.11917144072	visual	right	left	tactile	NA	246.214112733	FALSE	FALSE	FALSE	FALSE	FALSE	0
p08	2015	06	16	12	33	f	21	l	39.7682664529	2	75	1.64830874	1.19183472456	tactile	right	right	tactile	NA	289.552058093	FALSE	FALSE	FALSE	FALSE	FALSE	0
p08	2015	06	16	12	33	f	21	l	39.7682664529	2	76	1.61671480304	0.961123763877	visual	right	left	tactile	NA	339.491880964	FALSE	FALSE	FALSE	FALSE	FALSE	0
p08	2015	06	16	12	33	f	21	l	39.7682664529	2	77	1.63455820386	0.937757656577	visual	right	left	visual	NA	282.65177086	FALSE	FALSE	FALSE	FALSE	FALSE	0
p08	2015	06	16	12	33	f	21	l	39.7682664529	2	78	1.55636250088	1.39334317161	tactile	right	right	visual	NA	381.461002864	FALSE	FALSE	FALSE	FALSE	FALSE	0
p08	2015	06	16	12	33	f	21	l	39.7682664529	2	79	1.72952275397	1.12297838412	tactile	right	right	tactile	NA	226.220612414	FALSE	FALSE	FALSE	FALSE	TRUE	0
p08	2015	06	16	12	33	f	21	l	39.7682664529	2	80	1.91258276999	1.19229857659	tactile	right	right	tactile	NA	309.160981094	FALSE	FALSE	FALSE	FALSE	TRUE	0
p08	2015	06	16	12	33	f	21	l	33.3670755429	2	81	6.21144165215	1.13733087877	visual	left	left	visual	NA	262.726332759	FALSE	FALSE	FALSE	FALSE	TRUE	0
p08	2015	06	16	12	33	f	21	l	33.3670755429	2	82	1.83744834014	1.21941267812	visual	right	catch	tactile	NA	NA	FALSE	FALSE	FALSE	FALSE	FALSE	0
p08	2015	06	16	12	33	f	21	l	33.3670755429	2	83	1.71391633083	0.642611414627	visual	right	left	tactile	NA	229.02593296	FALSE	FALSE	FALSE	FALSE	FALSE	0
p08	2015	06	16	12	33	f	21	l	33.3670755429	2	84	1.77904673107	1.41208846463	tactile	right	left	visual	NA	301.546982722	FALSE	FALSE	FALSE	FALSE	FALSE	0
p08	2015	06	16	12	33	f	21	l	33.3670755429	2	85	1.59216849902	0.528694258556	tactile	left	left	tactile	NA	317.977499217	FALSE	FALSE	FALSE	FALSE	FALSE	0
p08	2015	06	16	12	33	f	21	l	33.3670755429	2	86	1.55478791078	1.05571616272	visual	left	left	visual	NA	509.903328959	FALSE	FALSE	FALSE	FALSE	FALSE	0
p08	2015	06	16	12	33	f	21	l	33.3670755429	2	87	1.38978712098	0.663630055632	tactile	left	right	tactile	NA	277.180765755	FALSE	FALSE	FALSE	FALSE	FALSE	0
p08	2015	06	16	12	33	f	21	l	33.3670755429	2	88	1.68515686598	0.779474673654	tactile	right	left	visual	NA	330.628056079	FALSE	FALSE	FALSE	FALSE	FALSE	0
p08	2015	06	16	12	33	f	21	l	33.3670755429	2	89	1.62905686884	1.17790372663	tactile	right	left	tactile	NA	261.483680923	FALSE	FALSE	FALSE	FALSE	FALSE	0
p08	2015	06	16	12	33	f	21	l	33.3670755429	2	90	1.71398296393	1.10143746454	tactile	right	right	visual	NA	367.453070125	FALSE	FALSE	FALSE	FALSE	TRUE	0
p08	2015	06	16	12	33	f	21	l	33.3670755429	2	91	1.628525218	1.43062137624	tactile	left	left	tactile	NA	282.430571271	FALSE	FALSE	FALSE	FALSE	FALSE	0
p08	2015	06	16	12	33	f	21	l	33.3670755429	2	92	1.64415428299	1.37924755521	visual	right	left	visual	NA	306.447524345	FALSE	FALSE	FALSE	TRUE	TRUE	0
p08	2015	06	16	12	33	f	21	l	33.3670755429	2	93	1.6740523451	1.10632648642	visual	right	right	visual	NA	403.452742146	FALSE	FALSE	FALSE	FALSE	FALSE	0
p08	2015	06	16	12	33	f	21	l	33.3670755429	2	94	1.51273942995	0.515339240853	tactile	right	right	tactile	NA	378.315479727	FALSE	FALSE	FALSE	FALSE	FALSE	0
p08	2015	06	16	12	33	f	21	l	33.3670755429	2	95	1.65916902898	1.17848244	tactile	left	left	visual	NA	263.060312485	FALSE	FALSE	FALSE	FALSE	FALSE	0
p08	2015	06	16	12	33	f	21	l	33.3670755429	2	96	1.80967770889	1.25937342374	tactile	right	left	tactile	NA	308.936380083	FALSE	FALSE	FALSE	FALSE	TRUE	0
p08	2015	06	16	12	33	f	21	l	33.3670755429	2	97	1.65805445495	0.687734759245	visual	left	left	visual	NA	401.491547469	FALSE	FALSE	FALSE	FALSE	FALSE	0
p08	2015	06	16	12	33	f	21	l	33.3670755429	2	98	1.65585291805	1.28719378086	tactile	left	right	visual	NA	328.819413902	FALSE	FALSE	FALSE	FALSE	FALSE	0
p08	2015	06	16	12	33	f	21	l	33.3670755429	2	99	1.66432157415	0.757266460818	visual	left	right	visual	NA	285.548257641	FALSE	FALSE	FALSE	FALSE	FALSE	0
p08	2015	06	16	12	33	f	21	l	33.3670755429	2	100	1.70404952206	0.565904194127	visual	right	left	tactile	NA	298.423922621	FALSE	FALSE	FALSE	FALSE	FALSE	0
p08	2015	06	16	12	33	f	21	l	33.3670755429	2	101	2.027514752	0.912534243334	tactile	right	left	visual	NA	142.310783034	FALSE	FALSE	FALSE	FALSE	FALSE	0
p08	2015	06	16	12	33	f	21	l	33.3670755429	2	102	1.70735030901	0.869088403793	visual	left	right	visual	NA	265.516519547	FALSE	FALSE	FALSE	FALSE	FALSE	0
p08	2015	06	16	12	33	f	21	l	33.3670755429	2	103	1.52356429212	0.847221488241	tactile	right	left	tactile	NA	235.1751565	FALSE	FALSE	FALSE	FALSE	FALSE	0
p08	2015	06	16	12	33	f	21	l	33.3670755429	2	104	1.74394886987	0.703184916873	tactile	left	right	visual	NA	311.809447827	FALSE	FALSE	FALSE	FALSE	FALSE	0
p08	2015	06	16	12	33	f	21	l	33.3670755429	2	105	1.74125756812	0.982249801188	tactile	right	right	tactile	NA	396.059876308	FALSE	FALSE	FALSE	FALSE	TRUE	0
p08	2015	06	16	12	33	f	21	l	33.3670755429	2	106	3.01542768115	0.950549037718	visual	left	left	tactile	NA	294.536435977	FALSE	FALSE	FALSE	FALSE	FALSE	0
p08	2015	06	16	12	33	f	21	l	33.3670755429	2	107	1.817890896	1.28688943578	visual	left	right	tactile	voice	NA	TRUE	FALSE	FALSE	FALSE	FALSE	0
p08	2015	06	16	12	33	f	21	l	33.3670755429	2	108	2.32924904814	1.15081315063	tactile	left	right	visual	NA	651.099599898	FALSE	FALSE	FALSE	FALSE	FALSE	0
p08	2015	06	16	12	33	f	21	l	33.3670755429	2	109	1.58746975986	0.910627163189	visual	left	catch	visual	NA	NA	FALSE	FALSE	FALSE	FALSE	FALSE	0
p08	2015	06	16	12	33	f	21	l	33.3670755429	2	110	2.20809181407	0.670464223317	visual	right	right	visual	NA	502.189748455	FALSE	FALSE	FALSE	FALSE	FALSE	0
p08	2015	06	16	12	33	f	21	l	33.3670755429	2	111	1.43672740506	1.23347271298	tactile	left	left	tactile	NA	269.616515609	FALSE	FALSE	FALSE	FALSE	FALSE	0
p08	2015	06	16	12	33	f	21	l	33.3670755429	2	112	1.55629682308	1.38478677003	visual	left	left	visual	NA	298.231614521	FALSE	FALSE	FALSE	FALSE	FALSE	0
p08	2015	06	16	12	33	f	21	l	33.3670755429	2	113	1.92945218203	1.43229079949	visual	right	left	tactile	NA	391.4677992	FALSE	FALSE	FALSE	FALSE	FALSE	0
p08	2015	06	16	12	33	f	21	l	33.3670755429	2	114	2.64581501903	0.868495942494	tactile	left	left	visual	NA	282.503735973	FALSE	FALSE	FALSE	FALSE	TRUE	0
p08	2015	06	16	12	33	f	21	l	33.3670755429	2	115	1.52909048996	0.622932725877	tactile	left	left	visual	NA	306.035769871	FALSE	FALSE	FALSE	FALSE	FALSE	0
p08	2015	06	16	12	33	f	21	l	33.3670755429	2	116	1.437657492	1.21288255644	visual	right	right	tactile	NA	212.596482132	FALSE	FALSE	FALSE	FALSE	FALSE	0
p08	2015	06	16	12	33	f	21	l	33.3670755429	2	117	1.61301271408	0.895114519867	tactile	right	left	visual	NA	301.676613744	FALSE	FALSE	FALSE	FALSE	FALSE	0
p08	2015	06	16	12	33	f	21	l	33.3670755429	2	118	1.87537622615	0.91636243048	tactile	left	left	visual	NA	117.541887099	FALSE	FALSE	FALSE	FALSE	FALSE	0
p08	2015	06	16	12	33	f	21	l	33.3670755429	2	119	1.72457376402	1.35588525281	visual	right	right	tactile	NA	267.266401788	FALSE	FALSE	FALSE	FALSE	TRUE	0
p08	2015	06	16	12	33	f	21	l	33.3670755429	2	120	1.64537056093	0.813337329315	tactile	left	right	visual	NA	99.5657502208	FALSE	FALSE	FALSE	FALSE	FALSE	0
p08	2015	06	16	12	33	f	21	l	47.5512011389	2	121	6.59920773003	0.962140157495	visual	left	left	tactile	NA	495.988721028	FALSE	FALSE	FALSE	FALSE	FALSE	0
p08	2015	06	16	12	33	f	21	l	47.5512011389	2	122	18.2714298831	1.45045343764	tactile	left	left	tactile	NA	303.45553509	FALSE	FALSE	FALSE	FALSE	FALSE	0
p08	2015	06	16	12	33	f	21	l	47.5512011389	2	123	2.146308186	0.57852340688	tactile	right	right	tactile	NA	271.285261493	FALSE	FALSE	FALSE	FALSE	FALSE	0
p08	2015	06	16	12	33	f	21	l	47.5512011389	2	124	1.9973211321	1.29650375552	visual	right	right	visual	NA	403.702004114	FALSE	FALSE	FALSE	FALSE	FALSE	0
p08	2015	06	16	12	33	f	21	l	47.5512011389	2	125	6.33089453098	0.693058825027	tactile	right	left	visual	NA	296.155683463	FALSE	FALSE	FALSE	FALSE	TRUE	0
p08	2015	06	16	12	33	f	21	l	47.5512011389	2	126	1.77330368198	0.743996124175	tactile	right	right	visual	NA	146.259902278	FALSE	FALSE	FALSE	FALSE	FALSE	0
p08	2015	06	16	12	33	f	21	l	47.5512011389	2	127	1.81655557314	1.36945647285	visual	left	right	tactile	NA	266.079306835	FALSE	FALSE	FALSE	FALSE	TRUE	0
p08	2015	06	16	12	33	f	21	l	47.5512011389	2	128	3.04460177384	1.04354505416	tactile	left	left	tactile	NA	248.232191429	FALSE	FALSE	FALSE	FALSE	FALSE	0
p08	2015	06	16	12	33	f	21	l	47.5512011389	2	129	7.23681938997	1.45509570077	visual	right	right	visual	NA	508.635845967	FALSE	FALSE	FALSE	FALSE	FALSE	0
p08	2015	06	16	12	33	f	21	l	47.5512011389	2	130	7.03034234396	1.23060985613	tactile	left	right	visual	NA	292.317125481	FALSE	FALSE	FALSE	FALSE	FALSE	0
p08	2015	06	16	12	33	f	21	l	47.5512011389	2	131	2.98978360603	1.1925858799	tactile	right	left	tactile	NA	183.101356495	FALSE	FALSE	FALSE	FALSE	TRUE	0
p08	2015	06	16	12	33	f	21	l	47.5512011389	2	132	1.89678398706	1.27042439813	visual	right	left	visual	NA	220.546967583	FALSE	FALSE	FALSE	FALSE	FALSE	0
p08	2015	06	16	12	33	f	21	l	47.5512011389	2	133	2.0997303999	1.12017767197	visual	right	right	visual	NA	343.699183548	FALSE	FALSE	FALSE	FALSE	TRUE	0
p08	2015	06	16	12	33	f	21	l	47.5512011389	2	134	1.53721161513	1.49150236613	tactile	right	right	visual	NA	265.002041589	FALSE	FALSE	FALSE	FALSE	FALSE	0
p08	2015	06	16	12	33	f	21	l	47.5512011389	2	135	5.53447079402	1.17288112315	visual	right	right	tactile	NA	222.129082307	FALSE	FALSE	FALSE	FALSE	FALSE	0
p08	2015	06	16	12	33	f	21	l	47.5512011389	2	136	1.99695926392	1.14821690415	visual	left	left	tactile	NA	210.796004627	FALSE	FALSE	FALSE	FALSE	FALSE	0
p08	2015	06	16	12	33	f	21	l	47.5512011389	2	137	1.99901580601	1.4389050365	visual	right	left	tactile	NA	247.09209404	FALSE	FALSE	FALSE	FALSE	FALSE	0
p08	2015	06	16	12	33	f	21	l	47.5512011389	2	138	1.50548550999	1.14488943188	tactile	right	right	tactile	NA	165.811074898	FALSE	FALSE	FALSE	FALSE	FALSE	0
p08	2015	06	16	12	33	f	21	l	47.5512011389	2	139	1.49874137319	0.967938343794	visual	left	right	visual	NA	300.71562482	FALSE	FALSE	FALSE	FALSE	TRUE	0
p08	2015	06	16	12	33	f	21	l	47.5512011389	2	140	1.23689224501	1.44886728116	tactile	left	left	visual	NA	90.4592943843	FALSE	FALSE	FALSE	FALSE	FALSE	0
p08	2015	06	16	12	33	f	21	l	47.5512011389	2	141	1.4698651752	1.27710415491	visual	left	right	tactile	NA	220.026068622	FALSE	FALSE	FALSE	FALSE	FALSE	0
p08	2015	06	16	12	33	f	21	l	47.5512011389	2	142	1.05765385902	1.13414580393	tactile	left	right	tactile	NA	38.1686736364	FALSE	FALSE	FALSE	FALSE	TRUE	0
p08	2015	06	16	12	33	f	21	l	47.5512011389	2	143	1.45389625919	1.4395205439	visual	right	right	tactile	NA	275.665473659	FALSE	FALSE	FALSE	FALSE	TRUE	0
p08	2015	06	16	12	33	f	21	l	47.5512011389	2	144	1.42969476688	1.19730217021	visual	right	right	visual	NA	142.30684354	FALSE	FALSE	FALSE	FALSE	FALSE	0
p08	2015	06	16	12	33	f	21	l	47.5512011389	2	145	1.19668553304	0.840821544014	visual	left	right	tactile	NA	241.233910667	FALSE	FALSE	FALSE	FALSE	FALSE	0
p08	2015	06	16	12	33	f	21	l	47.5512011389	2	146	6.82915915991	0.64498118177	visual	right	catch	visual	NA	NA	FALSE	FALSE	FALSE	FALSE	FALSE	0
p08	2015	06	16	12	33	f	21	l	47.5512011389	2	147	4.29114778596	1.01684828332	tactile	right	left	visual	NA	353.063521208	FALSE	FALSE	FALSE	FALSE	TRUE	0
p08	2015	06	16	12	33	f	21	l	47.5512011389	2	148	1.42492298619	1.02010227687	tactile	left	left	tactile	voice	NA	TRUE	FALSE	FALSE	FALSE	FALSE	0
p08	2015	06	16	12	33	f	21	l	47.5512011389	2	149	1.46346272086	1.1054159605	visual	left	right	tactile	NA	462.674650131	FALSE	FALSE	FALSE	FALSE	FALSE	0
p08	2015	06	16	12	33	f	21	l	47.5512011389	2	150	2.30247451901	1.08892072418	visual	left	right	visual	NA	364.702264545	FALSE	FALSE	FALSE	FALSE	FALSE	0
p08	2015	06	16	12	33	f	21	l	47.5512011389	2	151	1.28158126585	1.42821731496	tactile	left	left	tactile	NA	315.94297383	FALSE	FALSE	FALSE	FALSE	FALSE	0
p08	2015	06	16	12	33	f	21	l	47.5512011389	2	152	1.2464009251	0.559335825967	visual	left	right	tactile	NA	286.704690661	FALSE	FALSE	FALSE	FALSE	FALSE	0
p08	2015	06	16	12	33	f	21	l	47.5512011389	2	153	1.15676279087	0.611363797117	tactile	right	right	visual	NA	310.077660484	FALSE	FALSE	FALSE	FALSE	FALSE	0
p08	2015	06	16	12	33	f	21	l	47.5512011389	2	154	1.65064436686	1.02652241993	tactile	right	left	tactile	NA	237.51148372	FALSE	FALSE	FALSE	FALSE	TRUE	0
p08	2015	06	16	12	33	f	21	l	47.5512011389	2	155	1.29574976	1.1337014847	tactile	right	right	visual	NA	317.053959938	FALSE	FALSE	FALSE	FALSE	FALSE	0
p08	2015	06	16	12	33	f	21	l	47.5512011389	2	156	1.682198592	1.36906014135	tactile	left	left	tactile	NA	346.653292421	FALSE	FALSE	FALSE	FALSE	TRUE	0
p08	2015	06	16	12	33	f	21	l	47.5512011389	2	157	1.83864997188	0.91743814583	visual	right	left	visual	NA	308.126589982	FALSE	FALSE	FALSE	FALSE	FALSE	0
p08	2015	06	16	12	33	f	21	l	47.5512011389	2	158	1.37331377179	0.589960433543	tactile	left	right	tactile	NA	257.32070813	FALSE	FALSE	FALSE	FALSE	FALSE	0
p08	2015	06	16	12	33	f	21	l	47.5512011389	2	159	1.47695535305	1.24117600716	tactile	left	catch	visual	voice	NA	TRUE	FALSE	FALSE	FALSE	TRUE	0
p08	2015	06	16	12	33	f	21	l	47.5512011389	2	160	2.01526567899	1.24336355173	tactile	right	right	visual	NA	513.870955911	FALSE	FALSE	FALSE	FALSE	FALSE	0
p08	2015	06	16	12	33	f	21	l	60.8648353301	3	1	4.81093814084	1.01724633155	tactile	right	catch	visual	NA	NA	FALSE	FALSE	FALSE	FALSE	FALSE	0
p08	2015	06	16	12	33	f	21	l	60.8648353301	3	2	1.10077780089	1.22600228331	visual	right	right	tactile	NA	294.706054265	FALSE	FALSE	FALSE	FALSE	FALSE	0
p08	2015	06	16	12	33	f	21	l	60.8648353301	3	3	1.20975489402	1.26086953368	tactile	left	left	tactile	NA	296.58120987	FALSE	FALSE	FALSE	FALSE	FALSE	0
p08	2015	06	16	12	33	f	21	l	60.8648353301	3	4	1.59904936515	0.660103623541	visual	right	catch	tactile	NA	NA	FALSE	FALSE	FALSE	FALSE	FALSE	0
p08	2015	06	16	12	33	f	21	l	60.8648353301	3	5	1.08905068482	1.19671158017	tactile	right	right	tactile	NA	252.123120241	FALSE	FALSE	FALSE	FALSE	FALSE	0
p08	2015	06	16	12	33	f	21	l	60.8648353301	3	6	1.53590969997	0.604080523714	tactile	right	left	tactile	NA	306.23872974	FALSE	FALSE	FALSE	FALSE	FALSE	0
p08	2015	06	16	12	33	f	21	l	60.8648353301	3	7	1.33424971183	0.664756766542	tactile	left	right	tactile	NA	302.237101132	FALSE	FALSE	FALSE	FALSE	FALSE	0
p08	2015	06	16	12	33	f	21	l	60.8648353301	3	8	11.7266510481	1.25290303758	tactile	left	right	visual	NA	332.627586089	FALSE	FALSE	FALSE	FALSE	TRUE	0
p08	2015	06	16	12	33	f	21	l	60.8648353301	3	9	1.7828354619	1.04124178531	visual	right	catch	visual	NA	NA	FALSE	FALSE	FALSE	FALSE	FALSE	0
p08	2015	06	16	12	33	f	21	l	60.8648353301	3	10	1.38962360099	1.34819753495	tactile	right	left	visual	NA	370.240377728	FALSE	FALSE	FALSE	FALSE	TRUE	0
p08	2015	06	16	12	33	f	21	l	60.8648353301	3	11	8.2120080071	1.29018438865	tactile	right	right	tactile	NA	301.502760965	FALSE	FALSE	FALSE	FALSE	FALSE	0
p08	2015	06	16	12	33	f	21	l	60.8648353301	3	12	2.37029262516	1.33288548384	visual	left	right	tactile	NA	324.766105739	FALSE	FALSE	FALSE	FALSE	FALSE	0
p08	2015	06	16	12	33	f	21	l	60.8648353301	3	13	1.56039005704	0.698900361927	visual	left	left	visual	NA	619.464285672	FALSE	FALSE	FALSE	FALSE	FALSE	0
p08	2015	06	16	12	33	f	21	l	60.8648353301	3	14	1.69345836085	1.24621886109	visual	right	right	visual	NA	303.645976586	FALSE	FALSE	FALSE	FALSE	FALSE	0
p08	2015	06	16	12	33	f	21	l	60.8648353301	3	15	9.73184220912	0.999323386973	visual	right	left	tactile	NA	312.478626845	FALSE	FALSE	FALSE	FALSE	FALSE	0
p08	2015	06	16	12	33	f	21	l	60.8648353301	3	16	1.29909923207	1.36230090149	tactile	left	left	visual	NA	387.950349133	FALSE	FALSE	FALSE	FALSE	FALSE	0
p08	2015	06	16	12	33	f	21	l	60.8648353301	3	17	1.21321840212	0.962049375677	visual	right	left	visual	NA	360.9695388	FALSE	FALSE	FALSE	FALSE	FALSE	0
p08	2015	06	16	12	33	f	21	l	60.8648353301	3	18	1.68071103701	0.812200032147	tactile	right	catch	tactile	NA	465.577734401	FALSE	FALSE	FALSE	FALSE	FALSE	0
p08	2015	06	16	12	33	f	21	l	60.8648353301	3	19	1.946143999	1.49039064758	tactile	left	left	visual	NA	462.206798838	FALSE	FALSE	FALSE	FALSE	FALSE	0
p08	2015	06	16	12	33	f	21	l	60.8648353301	3	20	1.34945944115	1.40257438837	visual	left	right	visual	NA	382.391875144	FALSE	FALSE	FALSE	FALSE	FALSE	0
p08	2015	06	16	12	33	f	21	l	60.8648353301	3	21	1.14106442407	1.39090800473	tactile	right	catch	tactile	NA	NA	FALSE	FALSE	FALSE	FALSE	FALSE	0
p08	2015	06	16	12	33	f	21	l	60.8648353301	3	22	1.73970683198	0.568388395692	tactile	left	left	tactile	NA	325.649748789	FALSE	FALSE	FALSE	FALSE	FALSE	0
p08	2015	06	16	12	33	f	21	l	60.8648353301	3	23	0.974061358022	0.86735618812	visual	right	left	tactile	NA	303.372347495	FALSE	FALSE	FALSE	FALSE	TRUE	0
p08	2015	06	16	12	33	f	21	l	60.8648353301	3	24	1.16453361185	1.16621902342	tactile	right	left	tactile	NA	223.608368076	FALSE	FALSE	FALSE	FALSE	FALSE	0
p08	2015	06	16	12	33	f	21	l	60.8648353301	3	25	5.55481854291	0.96264235123	tactile	right	left	visual	NA	341.868135612	FALSE	FALSE	FALSE	FALSE	FALSE	0
p08	2015	06	16	12	33	f	21	l	60.8648353301	3	26	2.58401147183	0.596109179882	visual	left	left	tactile	NA	306.22321181	FALSE	FALSE	FALSE	FALSE	FALSE	0
p08	2015	06	16	12	33	f	21	l	60.8648353301	3	27	1.35536697297	1.37015199367	tactile	right	catch	visual	NA	NA	FALSE	FALSE	FALSE	FALSE	TRUE	0
p08	2015	06	16	12	33	f	21	l	60.8648353301	3	28	2.63074182812	0.62348257616	visual	left	catch	tactile	NA	NA	FALSE	FALSE	FALSE	FALSE	FALSE	0
p08	2015	06	16	12	33	f	21	l	60.8648353301	3	29	1.67129647406	1.07499673602	visual	left	left	visual	NA	488.55402926	FALSE	FALSE	FALSE	FALSE	FALSE	0
p08	2015	06	16	12	33	f	21	l	60.8648353301	3	30	1.38995558885	1.31043302101	tactile	right	left	tactile	NA	375.270230696	FALSE	FALSE	FALSE	FALSE	TRUE	0
p08	2015	06	16	12	33	f	21	l	60.8648353301	3	31	2.26775491494	1.42711095248	tactile	left	right	visual	NA	377.563952003	FALSE	FALSE	FALSE	FALSE	FALSE	0
p08	2015	06	16	12	33	f	21	l	60.8648353301	3	32	15.8535037751	1.08922232701	visual	right	left	tactile	NA	299.000631552	FALSE	FALSE	FALSE	FALSE	FALSE	0
p08	2015	06	16	12	33	f	21	l	60.8648353301	3	33	2.04879574198	0.517414557961	tactile	right	right	tactile	NA	319.201613544	FALSE	FALSE	FALSE	FALSE	FALSE	0
p08	2015	06	16	12	33	f	21	l	60.8648353301	3	34	6.84065050702	1.05250076604	tactile	left	left	visual	NA	377.13209074	FALSE	FALSE	FALSE	FALSE	FALSE	0
p08	2015	06	16	12	33	f	21	l	60.8648353301	3	35	1.936713523	0.579827840699	visual	right	left	visual	NA	288.888074923	FALSE	FALSE	FALSE	FALSE	FALSE	0
p08	2015	06	16	12	33	f	21	l	60.8648353301	3	36	8.28106361302	0.651823913082	tactile	right	left	visual	NA	366.043829592	FALSE	FALSE	FALSE	FALSE	FALSE	0
p08	2015	06	16	12	33	f	21	l	60.8648353301	3	37	66.902001261	1.03051671177	tactile	right	left	tactile	NA	427.185445791	FALSE	FALSE	FALSE	FALSE	FALSE	0
p08	2015	06	16	12	33	f	21	l	60.8648353301	3	38	2.16183392517	1.31540792176	visual	left	left	tactile	NA	280.013321899	FALSE	FALSE	FALSE	FALSE	FALSE	0
p08	2015	06	16	12	33	f	21	l	60.8648353301	3	39	2.08409200306	1.14662590798	visual	left	left	visual	NA	418.765140465	FALSE	FALSE	FALSE	FALSE	FALSE	0
p08	2015	06	16	12	33	f	21	l	60.8648353301	3	40	2.301808591	0.956422933909	tactile	right	left	tactile	NA	262.604019837	FALSE	FALSE	FALSE	FALSE	FALSE	0
p08	2015	06	16	12	33	f	21	l	22.182275452	3	41	11.0172091869	0.890524879992	visual	left	left	visual	NA	294.383754488	FALSE	FALSE	FALSE	FALSE	FALSE	0
p08	2015	06	16	12	33	f	21	l	22.182275452	3	42	1.84039178793	0.760591847269	tactile	right	left	visual	NA	327.147465199	FALSE	FALSE	FALSE	FALSE	FALSE	0
p08	2015	06	16	12	33	f	21	l	22.182275452	3	43	1.4291371482	1.2732059796	visual	right	right	tactile	NA	273.087613983	FALSE	FALSE	FALSE	FALSE	FALSE	0
p08	2015	06	16	12	33	f	21	l	22.182275452	3	44	2.11052197707	0.730116480674	visual	right	right	visual	NA	350.269342773	FALSE	FALSE	FALSE	FALSE	FALSE	0
p08	2015	06	16	12	33	f	21	l	22.182275452	3	45	2.04673602781	1.36828463982	visual	right	left	visual	NA	317.913443549	FALSE	FALSE	FALSE	FALSE	FALSE	0
p08	2015	06	16	12	33	f	21	l	22.182275452	3	46	1.56097981497	0.837125820491	tactile	right	right	visual	NA	224.204605911	FALSE	FALSE	FALSE	FALSE	FALSE	0
p08	2015	06	16	12	33	f	21	l	22.182275452	3	47	1.34512580093	0.92176917743	tactile	right	right	tactile	NA	299.243561225	FALSE	FALSE	FALSE	FALSE	FALSE	0
p08	2015	06	16	12	33	f	21	l	22.182275452	3	48	1.70572663704	0.550142963113	tactile	right	left	visual	NA	352.387361461	FALSE	FALSE	FALSE	FALSE	FALSE	0
p08	2015	06	16	12	33	f	21	l	22.182275452	3	49	1.41914074193	0.693356994828	tactile	left	catch	tactile	NA	NA	FALSE	FALSE	FALSE	FALSE	FALSE	0
p08	2015	06	16	12	33	f	21	l	22.182275452	3	50	0.901552057825	1.16562621432	tactile	left	left	visual	NA	311.578095425	FALSE	FALSE	FALSE	FALSE	TRUE	0
p08	2015	06	16	12	33	f	21	l	22.182275452	3	51	2.07180631906	1.01637925124	tactile	left	left	tactile	NA	314.466399606	FALSE	FALSE	FALSE	FALSE	FALSE	0
p08	2015	06	16	12	33	f	21	l	22.182275452	3	52	1.04493912403	1.27771805918	visual	right	left	visual	NA	315.454140306	FALSE	FALSE	FALSE	FALSE	FALSE	0
p08	2015	06	16	12	33	f	21	l	22.182275452	3	53	13.368486932	0.514590058835	visual	right	left	tactile	NA	308.279590681	FALSE	FALSE	FALSE	FALSE	FALSE	0
p08	2015	06	16	12	33	f	21	l	22.182275452	3	54	1.93140989798	1.43990242428	tactile	right	right	tactile	NA	250.76437043	FALSE	FALSE	FALSE	FALSE	FALSE	0
p08	2015	06	16	12	33	f	21	l	22.182275452	3	55	1.33901993488	1.18322108473	visual	left	right	tactile	NA	259.486598661	FALSE	FALSE	FALSE	FALSE	TRUE	0
p08	2015	06	16	12	33	f	21	l	22.182275452	3	56	2.18102113181	0.608097709267	visual	right	left	tactile	NA	348.028877517	FALSE	FALSE	FALSE	FALSE	FALSE	0
p08	2015	06	16	12	33	f	21	l	22.182275452	3	57	1.56870698603	1.26896058245	tactile	right	right	visual	NA	314.370922046	FALSE	FALSE	FALSE	FALSE	FALSE	0
p08	2015	06	16	12	33	f	21	l	22.182275452	3	58	1.56546897418	0.953898260174	tactile	left	right	tactile	NA	263.130146312	FALSE	FALSE	FALSE	FALSE	FALSE	0
p08	2015	06	16	12	33	f	21	l	22.182275452	3	59	1.59755113302	1.35682535505	tactile	left	right	tactile	NA	341.602333821	FALSE	FALSE	FALSE	FALSE	FALSE	0
p08	2015	06	16	12	33	f	21	l	22.182275452	3	60	1.56087744609	0.899528321884	visual	left	left	tactile	NA	220.531411935	FALSE	FALSE	FALSE	FALSE	FALSE	0
p08	2015	06	16	12	33	f	21	l	22.182275452	3	61	1.44430901599	0.699421143353	tactile	right	right	visual	NA	362.798298243	FALSE	FALSE	FALSE	FALSE	FALSE	0
p08	2015	06	16	12	33	f	21	l	22.182275452	3	62	1.45770762698	0.666118989846	tactile	right	left	visual	NA	293.344042497	FALSE	FALSE	FALSE	FALSE	FALSE	0
p08	2015	06	16	12	33	f	21	l	22.182275452	3	63	1.73314865096	0.726347529467	tactile	left	left	visual	NA	219.15953001	FALSE	FALSE	FALSE	FALSE	FALSE	0
p08	2015	06	16	12	33	f	21	l	22.182275452	3	64	1.26672466798	1.37964700358	visual	left	left	visual	NA	386.703381082	FALSE	FALSE	FALSE	FALSE	FALSE	0
p08	2015	06	16	12	33	f	21	l	22.182275452	3	65	1.83351409715	0.517278483837	visual	right	catch	tactile	NA	432.236506836	FALSE	FALSE	FALSE	FALSE	FALSE	0
p08	2015	06	16	12	33	f	21	l	22.182275452	3	66	1.75615608483	0.950702347689	visual	right	left	tactile	NA	272.606963757	FALSE	FALSE	FALSE	FALSE	FALSE	0
p08	2015	06	16	12	33	f	21	l	22.182275452	3	67	1.24100247491	1.17428253244	visual	right	right	tactile	NA	273.031572113	FALSE	FALSE	FALSE	FALSE	FALSE	0
p08	2015	06	16	12	33	f	21	l	22.182275452	3	68	1.38988644397	1.17206983502	tactile	left	right	tactile	NA	301.240693545	FALSE	FALSE	FALSE	FALSE	FALSE	0
p08	2015	06	16	12	33	f	21	l	22.182275452	3	69	1.14607498213	0.859751290985	visual	left	left	visual	NA	337.245701579	FALSE	FALSE	FALSE	FALSE	FALSE	0
p08	2015	06	16	12	33	f	21	l	22.182275452	3	70	1.33908024081	0.830403303319	tactile	left	left	visual	NA	363.163889386	FALSE	FALSE	FALSE	FALSE	FALSE	0
p08	2015	06	16	12	33	f	21	l	22.182275452	3	71	1.28279916104	0.665831833182	visual	left	catch	tactile	NA	193.207335426	FALSE	FALSE	FALSE	FALSE	FALSE	0
p08	2015	06	16	12	33	f	21	l	22.182275452	3	72	1.47847817303	0.544407333309	visual	left	right	visual	NA	263.65961344	FALSE	FALSE	FALSE	FALSE	FALSE	0
p08	2015	06	16	12	33	f	21	l	22.182275452	3	73	1.27123466902	1.07096689079	tactile	left	right	tactile	NA	234.747079667	FALSE	FALSE	FALSE	FALSE	FALSE	0
p08	2015	06	16	12	33	f	21	l	22.182275452	3	74	1.53276947886	1.12343094298	tactile	left	left	visual	NA	330.265419791	FALSE	FALSE	FALSE	FALSE	FALSE	0
p08	2015	06	16	12	33	f	21	l	22.182275452	3	75	1.58991924999	0.880772221128	tactile	right	left	tactile	voice	NA	TRUE	FALSE	FALSE	FALSE	FALSE	0
p08	2015	06	16	12	33	f	21	l	22.182275452	3	76	1.70296407002	0.716285077711	visual	left	right	visual	NA	481.305666966	FALSE	FALSE	FALSE	FALSE	FALSE	0
p08	2015	06	16	12	33	f	21	l	22.182275452	3	77	1.12323123403	0.656063323126	tactile	left	left	tactile	NA	247.480422491	FALSE	FALSE	FALSE	FALSE	FALSE	0
p08	2015	06	16	12	33	f	21	l	22.182275452	3	78	2.217173293	1.41293969956	visual	left	right	tactile	NA	353.818248026	FALSE	FALSE	FALSE	FALSE	FALSE	0
p08	2015	06	16	12	33	f	21	l	22.182275452	3	79	1.34765517898	1.12448936046	tactile	left	right	tactile	NA	246.144942241	FALSE	FALSE	FALSE	FALSE	FALSE	0
p08	2015	06	16	12	33	f	21	l	22.182275452	3	80	1.103712162	1.35949440248	tactile	left	right	visual	NA	328.427346889	FALSE	FALSE	FALSE	FALSE	FALSE	0
p08	2015	06	16	12	33	f	21	l	41.2417152929	3	81	7.21699573705	1.15817554147	tactile	right	right	tactile	NA	347.730285022	FALSE	FALSE	FALSE	FALSE	FALSE	0
p08	2015	06	16	12	33	f	21	l	41.2417152929	3	82	2.34637489612	1.38450764451	visual	left	left	tactile	NA	303.606029134	FALSE	FALSE	FALSE	FALSE	FALSE	0
p08	2015	06	16	12	33	f	21	l	41.2417152929	3	83	1.60730659007	0.512205955813	tactile	left	catch	visual	NA	NA	FALSE	FALSE	FALSE	FALSE	FALSE	0
p08	2015	06	16	12	33	f	21	l	41.2417152929	3	84	1.30974838603	1.13764430426	visual	right	left	tactile	NA	302.044936456	FALSE	FALSE	FALSE	FALSE	FALSE	0
p08	2015	06	16	12	33	f	21	l	41.2417152929	3	85	1.31923407596	1.41094503602	visual	right	right	tactile	NA	274.24549358	FALSE	FALSE	FALSE	FALSE	FALSE	0
p08	2015	06	16	12	33	f	21	l	41.2417152929	3	86	1.4872086409	0.930657126454	tactile	right	right	tactile	NA	237.563114148	FALSE	FALSE	FALSE	FALSE	FALSE	0
p08	2015	06	16	12	33	f	21	l	41.2417152929	3	87	1.51090966794	0.543804251988	tactile	left	right	visual	NA	285.311573418	FALSE	FALSE	FALSE	FALSE	FALSE	0
p08	2015	06	16	12	33	f	21	l	41.2417152929	3	88	1.38972136006	1.11299194489	tactile	left	left	tactile	NA	246.955802897	FALSE	FALSE	FALSE	FALSE	FALSE	0
p08	2015	06	16	12	33	f	21	l	41.2417152929	3	89	1.37941571698	0.803664742869	tactile	right	left	tactile	NA	231.094610645	FALSE	FALSE	FALSE	FALSE	FALSE	0
p08	2015	06	16	12	33	f	21	l	41.2417152929	3	90	1.255951548	0.875831224539	visual	left	right	tactile	voice	NA	TRUE	FALSE	FALSE	FALSE	FALSE	0
p08	2015	06	16	12	33	f	21	l	41.2417152929	3	91	1.17426814581	1.33167718782	visual	right	left	visual	NA	392.624842469	FALSE	FALSE	FALSE	FALSE	FALSE	0
p08	2015	06	16	12	33	f	21	l	41.2417152929	3	92	1.34575104713	1.33467983047	tactile	right	right	visual	NA	296.252085362	FALSE	FALSE	FALSE	FALSE	FALSE	0
p08	2015	06	16	12	33	f	21	l	41.2417152929	3	93	7.57224894292	1.0171605463	visual	right	right	visual	NA	461.513242219	FALSE	FALSE	FALSE	FALSE	FALSE	0
p08	2015	06	16	12	33	f	21	l	41.2417152929	3	94	2.03064134205	0.680467295072	tactile	right	right	tactile	NA	274.902512552	FALSE	FALSE	FALSE	FALSE	FALSE	0
p08	2015	06	16	12	33	f	21	l	41.2417152929	3	95	1.65741485101	1.43806294162	tactile	right	left	visual	NA	337.06972911	FALSE	FALSE	FALSE	FALSE	FALSE	0
p08	2015	06	16	12	33	f	21	l	41.2417152929	3	96	1.91552373301	1.4137847926	tactile	right	right	visual	NA	357.25853499	FALSE	FALSE	FALSE	FALSE	FALSE	0
p08	2015	06	16	12	33	f	21	l	41.2417152929	3	97	4.84970034403	0.662546112764	visual	left	right	tactile	NA	264.112078818	FALSE	FALSE	FALSE	FALSE	FALSE	0
p08	2015	06	16	12	33	f	21	l	41.2417152929	3	98	1.47145229694	0.642840502046	tactile	left	right	tactile	NA	251.905007521	FALSE	FALSE	FALSE	FALSE	FALSE	0
p08	2015	06	16	12	33	f	21	l	41.2417152929	3	99	1.43249571812	1.01561609751	tactile	left	right	tactile	NA	290.963598061	FALSE	FALSE	FALSE	FALSE	FALSE	0
p08	2015	06	16	12	33	f	21	l	41.2417152929	3	100	1.51672266796	0.889337548465	visual	right	left	tactile	NA	299.705300247	FALSE	FALSE	FALSE	FALSE	FALSE	0
p08	2015	06	16	12	33	f	21	l	41.2417152929	3	101	7.87413184089	1.26425942103	tactile	left	left	tactile	NA	256.800949574	FALSE	FALSE	FALSE	FALSE	TRUE	0
p08	2015	06	16	12	33	f	21	l	41.2417152929	3	102	1.977046079	0.862868598414	visual	left	catch	visual	NA	NA	FALSE	FALSE	FALSE	FALSE	TRUE	0
p08	2015	06	16	12	33	f	21	l	41.2417152929	3	103	1.81360015809	1.18027142898	visual	left	left	tactile	NA	296.728261746	FALSE	FALSE	FALSE	FALSE	FALSE	0
p08	2015	06	16	12	33	f	21	l	41.2417152929	3	104	1.43292964785	0.523400209442	visual	right	right	tactile	NA	341.398675228	FALSE	FALSE	FALSE	FALSE	FALSE	0
p08	2015	06	16	12	33	f	21	l	41.2417152929	3	105	1.13727803901	0.69293543354	tactile	right	left	tactile	NA	281.424283283	FALSE	FALSE	FALSE	FALSE	FALSE	0
p08	2015	06	16	12	33	f	21	l	41.2417152929	3	106	1.49025313789	1.2545378691	visual	right	catch	visual	NA	NA	FALSE	FALSE	FALSE	FALSE	TRUE	0
p08	2015	06	16	12	33	f	21	l	41.2417152929	3	107	1.267698379	0.670114267005	visual	right	right	visual	NA	397.392511601	FALSE	FALSE	FALSE	FALSE	TRUE	0
p08	2015	06	16	12	33	f	21	l	41.2417152929	3	108	1.14059303096	1.29290362506	visual	left	right	visual	NA	370.111861499	FALSE	FALSE	FALSE	FALSE	FALSE	0
p08	2015	06	16	12	33	f	21	l	41.2417152929	3	109	1.22584826988	0.730145111524	visual	left	right	tactile	NA	303.803097224	FALSE	FALSE	FALSE	FALSE	FALSE	0
p08	2015	06	16	12	33	f	21	l	41.2417152929	3	110	1.34016111097	0.67486474703	tactile	left	right	tactile	NA	508.296451531	FALSE	FALSE	FALSE	FALSE	FALSE	0
p08	2015	06	16	12	33	f	21	l	41.2417152929	3	111	1.24024657207	0.765571857066	tactile	left	catch	tactile	NA	NA	FALSE	FALSE	FALSE	FALSE	FALSE	0
p08	2015	06	16	12	33	f	21	l	41.2417152929	3	112	0.910695289029	0.86503346175	visual	right	right	tactile	NA	309.867014876	FALSE	FALSE	FALSE	FALSE	FALSE	0
p08	2015	06	16	12	33	f	21	l	41.2417152929	3	113	0.92444694601	0.581087136098	tactile	left	right	visual	NA	342.751553515	FALSE	FALSE	FALSE	FALSE	FALSE	0
p08	2015	06	16	12	33	f	21	l	41.2417152929	3	114	1.08737299894	0.912593489074	tactile	right	right	visual	NA	287.995042512	FALSE	FALSE	FALSE	FALSE	FALSE	0
p08	2015	06	16	12	33	f	21	l	41.2417152929	3	115	1.04144474398	0.788500593417	visual	right	right	visual	NA	432.728812099	FALSE	FALSE	FALSE	FALSE	FALSE	0
p08	2015	06	16	12	33	f	21	l	41.2417152929	3	116	0.917371533113	0.607863194406	tactile	left	left	tactile	NA	240.144691197	FALSE	FALSE	FALSE	FALSE	TRUE	0
p08	2015	06	16	12	33	f	21	l	41.2417152929	3	117	0.966155738104	1.40802712591	tactile	right	right	visual	NA	264.816318639	FALSE	FALSE	FALSE	FALSE	TRUE	0
p08	2015	06	16	12	33	f	21	l	41.2417152929	3	118	1.06245017005	1.26457913046	tactile	left	left	tactile	NA	311.331896111	FALSE	FALSE	FALSE	TRUE	TRUE	0
p08	2015	06	16	12	33	f	21	l	41.2417152929	3	119	1.03852922912	0.830028640955	tactile	left	left	tactile	NA	329.33908049	FALSE	FALSE	FALSE	FALSE	FALSE	0
p08	2015	06	16	12	33	f	21	l	41.2417152929	3	120	6.38084864593	0.642488649502	visual	right	right	visual	NA	676.333917072	FALSE	FALSE	FALSE	FALSE	FALSE	0
p08	2015	06	16	12	33	f	21	l	23.2019705011	3	121	5.422914539	0.794472694224	tactile	right	right	tactile	NA	263.573813485	FALSE	FALSE	FALSE	FALSE	FALSE	0
p08	2015	06	16	12	33	f	21	l	23.2019705011	3	122	1.410900485	1.41581536162	visual	right	right	tactile	NA	336.021004943	FALSE	FALSE	FALSE	FALSE	FALSE	0
p08	2015	06	16	12	33	f	21	l	23.2019705011	3	123	1.42106252885	1.18060867958	visual	right	left	visual	NA	289.522620151	FALSE	FALSE	FALSE	FALSE	FALSE	0
p08	2015	06	16	12	33	f	21	l	23.2019705011	3	124	1.14861173602	1.18435136689	tactile	left	left	visual	voice	NA	TRUE	FALSE	FALSE	FALSE	FALSE	0
p08	2015	06	16	12	33	f	21	l	23.2019705011	3	125	1.30199013115	0.575220737221	visual	left	right	visual	NA	329.068182502	FALSE	FALSE	FALSE	FALSE	FALSE	0
p08	2015	06	16	12	33	f	21	l	23.2019705011	3	126	1.37898698193	1.03398427229	tactile	right	left	tactile	NA	307.928672293	FALSE	FALSE	FALSE	FALSE	FALSE	0
p08	2015	06	16	12	33	f	21	l	23.2019705011	3	127	1.33178602415	1.40330805673	visual	left	right	visual	NA	320.907612797	FALSE	FALSE	FALSE	FALSE	FALSE	0
p08	2015	06	16	12	33	f	21	l	23.2019705011	3	128	1.09963205387	0.577703235898	tactile	left	right	visual	NA	342.532733688	FALSE	FALSE	FALSE	FALSE	FALSE	0
p08	2015	06	16	12	33	f	21	l	23.2019705011	3	129	1.01555228792	1.27347245	tactile	right	right	visual	NA	318.080960773	FALSE	FALSE	FALSE	FALSE	FALSE	0
p08	2015	06	16	12	33	f	21	l	23.2019705011	3	130	1.5961176001	1.37186419182	visual	left	right	tactile	NA	286.460161908	FALSE	FALSE	FALSE	FALSE	FALSE	0
p08	2015	06	16	12	33	f	21	l	23.2019705011	3	131	1.30578105897	1.09781419387	tactile	right	left	visual	NA	284.492339473	FALSE	FALSE	FALSE	FALSE	FALSE	0
p08	2015	06	16	12	33	f	21	l	23.2019705011	3	132	1.49056702713	0.684634193775	visual	left	right	visual	NA	387.995272875	FALSE	FALSE	FALSE	TRUE	TRUE	0
p08	2015	06	16	12	33	f	21	l	23.2019705011	3	133	1.03157396591	1.43792327524	visual	left	left	tactile	NA	279.709859518	FALSE	FALSE	FALSE	FALSE	FALSE	0
p08	2015	06	16	12	33	f	21	l	23.2019705011	3	134	1.72866946901	0.86761802977	visual	left	left	tactile	NA	277.194869006	FALSE	FALSE	FALSE	FALSE	FALSE	0
p08	2015	06	16	12	33	f	21	l	23.2019705011	3	135	1.27313154005	1.17237055015	visual	right	left	visual	NA	366.860943381	FALSE	FALSE	FALSE	FALSE	TRUE	0
p08	2015	06	16	12	33	f	21	l	23.2019705011	3	136	3.23420827091	0.765269745903	visual	right	left	visual	NA	237.286903663	FALSE	FALSE	FALSE	FALSE	TRUE	0
p08	2015	06	16	12	33	f	21	l	23.2019705011	3	137	1.39781904011	0.840987572475	visual	left	right	tactile	NA	136.124098208	FALSE	FALSE	FALSE	FALSE	FALSE	0
p08	2015	06	16	12	33	f	21	l	23.2019705011	3	138	2.05349949491	1.36455855343	visual	left	right	visual	NA	177.798465127	FALSE	FALSE	FALSE	FALSE	FALSE	0
p08	2015	06	16	12	33	f	21	l	23.2019705011	3	139	1.61592692812	0.974978007266	visual	right	right	tactile	NA	340.281411074	FALSE	FALSE	FALSE	FALSE	FALSE	0
p08	2015	06	16	12	33	f	21	l	23.2019705011	3	140	1.89727791399	0.792172650743	visual	left	left	visual	NA	127.103299601	FALSE	FALSE	FALSE	FALSE	FALSE	0
p08	2015	06	16	12	33	f	21	l	23.2019705011	3	141	1.44394198805	0.938581530664	tactile	left	left	visual	NA	286.511484999	FALSE	FALSE	FALSE	FALSE	FALSE	0
p08	2015	06	16	12	33	f	21	l	23.2019705011	3	142	6.59898164286	1.14489012629	visual	left	left	visual	NA	406.76095034	FALSE	FALSE	FALSE	FALSE	FALSE	0
p08	2015	06	16	12	33	f	21	l	23.2019705011	3	143	2.08793574502	1.20150009643	visual	left	catch	visual	NA	NA	FALSE	FALSE	FALSE	FALSE	TRUE	0
p08	2015	06	16	12	33	f	21	l	23.2019705011	3	144	1.615316974	1.37760734302	visual	right	right	visual	NA	438.776482595	FALSE	FALSE	FALSE	FALSE	TRUE	0
p08	2015	06	16	12	33	f	21	l	23.2019705011	3	145	1.13446752913	0.739883556207	visual	right	left	visual	NA	406.557930401	FALSE	FALSE	FALSE	TRUE	TRUE	0
p08	2015	06	16	12	33	f	21	l	23.2019705011	3	146	4.08430673694	1.20084783382	tactile	left	right	visual	NA	349.404544802	FALSE	FALSE	FALSE	FALSE	FALSE	0
p08	2015	06	16	12	33	f	21	l	23.2019705011	3	147	1.37180310604	0.780185617612	tactile	left	right	visual	NA	378.401915077	FALSE	FALSE	FALSE	FALSE	TRUE	0
p08	2015	06	16	12	33	f	21	l	23.2019705011	3	148	1.50916707702	1.39016327206	tactile	left	catch	visual	NA	NA	FALSE	FALSE	FALSE	FALSE	FALSE	0
p08	2015	06	16	12	33	f	21	l	23.2019705011	3	149	1.64590788493	0.532789451264	visual	left	right	visual	NA	315.81150624	FALSE	FALSE	FALSE	FALSE	FALSE	0
p08	2015	06	16	12	33	f	21	l	23.2019705011	3	150	5.99775742088	0.590314263875	visual	right	right	visual	voice	NA	TRUE	FALSE	FALSE	FALSE	FALSE	0
p08	2015	06	16	12	33	f	21	l	23.2019705011	3	151	1.68892942206	0.736959437737	visual	left	left	tactile	NA	250.977249816	FALSE	FALSE	FALSE	FALSE	FALSE	0
p08	2015	06	16	12	33	f	21	l	23.2019705011	3	152	1.655545671	0.669928847198	visual	left	left	visual	NA	292.652399512	FALSE	FALSE	FALSE	FALSE	TRUE	0
p08	2015	06	16	12	33	f	21	l	23.2019705011	3	153	1.53395409998	1.42065070831	visual	right	right	visual	NA	499.80271142	FALSE	FALSE	FALSE	FALSE	FALSE	0
p08	2015	06	16	12	33	f	21	l	23.2019705011	3	154	1.2805927319	1.39079801105	visual	left	right	tactile	NA	285.631309496	FALSE	FALSE	FALSE	TRUE	TRUE	0
p08	2015	06	16	12	33	f	21	l	23.2019705011	3	155	1.66704352503	1.03859795058	visual	right	left	tactile	NA	260.323947063	FALSE	FALSE	FALSE	FALSE	FALSE	0
p08	2015	06	16	12	33	f	21	l	23.2019705011	3	156	1.54601488309	1.32841337659	tactile	left	right	visual	NA	360.328865005	FALSE	FALSE	FALSE	FALSE	FALSE	0
p08	2015	06	16	12	33	f	21	l	23.2019705011	3	157	2.30895494297	1.13479598424	visual	left	left	tactile	NA	267.249369295	FALSE	FALSE	FALSE	FALSE	TRUE	0
p08	2015	06	16	12	33	f	21	l	23.2019705011	3	158	1.37842482189	0.642147124054	visual	right	right	tactile	NA	277.744393563	FALSE	FALSE	FALSE	FALSE	FALSE	0
p08	2015	06	16	12	33	f	21	l	23.2019705011	3	159	1.43636216293	1.38077066011	tactile	right	right	visual	NA	313.042110531	FALSE	FALSE	FALSE	FALSE	FALSE	0
p08	2015	06	16	12	33	f	21	l	23.2019705011	3	160	1.13200716698	0.586350874478	tactile	right	left	visual	NA	310.615539085	FALSE	FALSE	FALSE	FALSE	FALSE	0
p08	2015	06	16	12	33	f	21	l	30.621228707	4	1	4.19240358495	1.13505693916	tactile	left	right	tactile	NA	280.660265358	FALSE	FALSE	FALSE	FALSE	FALSE	0
p08	2015	06	16	12	33	f	21	l	30.621228707	4	2	1.64411020209	1.30323017792	tactile	left	left	tactile	NA	296.757302713	FALSE	FALSE	FALSE	FALSE	FALSE	0
p08	2015	06	16	12	33	f	21	l	30.621228707	4	3	1.66063521104	0.734991728949	tactile	right	right	tactile	NA	252.964667743	FALSE	FALSE	FALSE	FALSE	FALSE	0
p08	2015	06	16	12	33	f	21	l	30.621228707	4	4	1.584194839	0.794646158819	tactile	right	right	visual	NA	318.580441875	FALSE	FALSE	FALSE	FALSE	FALSE	0
p08	2015	06	16	12	33	f	21	l	30.621228707	4	5	1.5720495861	1.38490262365	visual	right	catch	tactile	NA	NA	FALSE	FALSE	FALSE	FALSE	FALSE	0
p08	2015	06	16	12	33	f	21	l	30.621228707	4	6	2.47169110691	1.34551011587	visual	right	right	visual	NA	436.386156827	FALSE	FALSE	FALSE	FALSE	FALSE	0
p08	2015	06	16	12	33	f	21	l	30.621228707	4	7	1.58133184002	1.47571143267	tactile	left	left	visual	NA	307.728630025	FALSE	FALSE	FALSE	FALSE	FALSE	0
p08	2015	06	16	12	33	f	21	l	30.621228707	4	8	6.45939059393	0.837435130844	visual	right	left	visual	NA	295.695389854	FALSE	FALSE	FALSE	FALSE	FALSE	0
p08	2015	06	16	12	33	f	21	l	30.621228707	4	9	1.59808924398	0.560061406125	tactile	right	right	visual	NA	380.180356326	FALSE	FALSE	FALSE	FALSE	FALSE	0
p08	2015	06	16	12	33	f	21	l	30.621228707	4	10	1.34573915298	0.675062390913	tactile	right	right	tactile	NA	251.200061757	FALSE	FALSE	FALSE	FALSE	FALSE	0
p08	2015	06	16	12	33	f	21	l	30.621228707	4	11	1.62178947986	0.553590354644	tactile	right	left	visual	NA	295.052167727	FALSE	FALSE	FALSE	FALSE	FALSE	0
p08	2015	06	16	12	33	f	21	l	30.621228707	4	12	1.42781030387	1.22130155569	tactile	right	left	tactile	NA	287.018271163	FALSE	FALSE	FALSE	FALSE	FALSE	0
p08	2015	06	16	12	33	f	21	l	30.621228707	4	13	1.29270560807	0.749884145658	tactile	right	left	visual	NA	293.758800952	FALSE	FALSE	FALSE	FALSE	FALSE	0
p08	2015	06	16	12	33	f	21	l	30.621228707	4	14	1.26467838814	0.758578004669	visual	right	left	visual	NA	196.137593826	FALSE	FALSE	FALSE	FALSE	FALSE	0
p08	2015	06	16	12	33	f	21	l	30.621228707	4	15	1.56531809084	1.41561259748	visual	right	left	visual	NA	330.780425109	FALSE	FALSE	FALSE	FALSE	TRUE	0
p08	2015	06	16	12	33	f	21	l	30.621228707	4	16	1.29231113102	1.34617091163	visual	right	right	tactile	NA	334.623595234	FALSE	FALSE	FALSE	FALSE	FALSE	0
p08	2015	06	16	12	33	f	21	l	30.621228707	4	17	1.42986876098	1.0626394261	visual	left	left	visual	NA	388.362794416	FALSE	FALSE	FALSE	FALSE	FALSE	0
p08	2015	06	16	12	33	f	21	l	30.621228707	4	18	1.28905547899	0.913874771224	tactile	left	left	visual	NA	302.066841396	FALSE	FALSE	FALSE	FALSE	FALSE	0
p08	2015	06	16	12	33	f	21	l	30.621228707	4	19	1.44023806904	0.892871860951	visual	left	left	visual	NA	351.508065592	FALSE	FALSE	FALSE	FALSE	FALSE	0
p08	2015	06	16	12	33	f	21	l	30.621228707	4	20	1.43121595215	0.698931234652	visual	left	left	tactile	NA	255.149089964	FALSE	FALSE	FALSE	FALSE	FALSE	0
p08	2015	06	16	12	33	f	21	l	30.621228707	4	21	1.42880341923	0.68676622471	visual	right	catch	visual	NA	NA	FALSE	FALSE	FALSE	FALSE	TRUE	0
p08	2015	06	16	12	33	f	21	l	30.621228707	4	22	3.26425971184	0.667285668532	tactile	right	right	visual	NA	342.426679097	FALSE	FALSE	FALSE	FALSE	FALSE	0
p08	2015	06	16	12	33	f	21	l	30.621228707	4	23	1.14077624306	0.588859564087	visual	left	left	tactile	NA	261.17796055	FALSE	FALSE	FALSE	FALSE	FALSE	0
p08	2015	06	16	12	33	f	21	l	30.621228707	4	24	1.280777151	1.15331677575	tactile	right	left	tactile	voice	NA	TRUE	FALSE	FALSE	FALSE	FALSE	0
p08	2015	06	16	12	33	f	21	l	30.621228707	4	25	1.30438128999	1.49008903143	tactile	right	left	tactile	NA	515.616924269	FALSE	FALSE	FALSE	FALSE	FALSE	0
p08	2015	06	16	12	33	f	21	l	30.621228707	4	26	1.12692751805	1.32897795299	visual	right	catch	tactile	NA	NA	FALSE	FALSE	FALSE	FALSE	FALSE	0
p08	2015	06	16	12	33	f	21	l	30.621228707	4	27	1.536521259	1.17107798152	visual	right	left	tactile	NA	298.935850151	FALSE	FALSE	FALSE	FALSE	FALSE	0
p08	2015	06	16	12	33	f	21	l	30.621228707	4	28	1.84050095407	1.27452796574	tactile	left	right	visual	NA	359.383971896	FALSE	FALSE	FALSE	FALSE	FALSE	0
p08	2015	06	16	12	33	f	21	l	30.621228707	4	29	2.04783720104	0.983842623362	visual	right	left	tactile	NA	264.526149025	FALSE	FALSE	FALSE	FALSE	FALSE	0
p08	2015	06	16	12	33	f	21	l	30.621228707	4	30	2.00021896604	0.836780967548	tactile	right	right	tactile	NA	293.740418041	FALSE	FALSE	FALSE	FALSE	FALSE	0
p08	2015	06	16	12	33	f	21	l	30.621228707	4	31	1.10519527597	1.38654535561	tactile	left	left	tactile	NA	270.168520045	FALSE	FALSE	FALSE	FALSE	FALSE	0
p08	2015	06	16	12	33	f	21	l	30.621228707	4	32	1.23764172895	0.633864111899	visual	left	right	tactile	NA	351.168114692	FALSE	FALSE	FALSE	FALSE	FALSE	0
p08	2015	06	16	12	33	f	21	l	30.621228707	4	33	1.04490315495	0.831950156149	visual	left	left	tactile	NA	229.97741634	FALSE	FALSE	FALSE	FALSE	FALSE	0
p08	2015	06	16	12	33	f	21	l	30.621228707	4	34	0.953413552837	0.535811107023	visual	left	right	visual	NA	262.851974694	FALSE	FALSE	FALSE	FALSE	FALSE	0
p08	2015	06	16	12	33	f	21	l	30.621228707	4	35	0.924738141941	1.11078737901	visual	left	right	visual	NA	117.165563628	FALSE	FALSE	FALSE	FALSE	FALSE	0
p08	2015	06	16	12	33	f	21	l	30.621228707	4	36	1.03321130201	0.857796876219	visual	right	right	visual	NA	295.627303421	FALSE	FALSE	FALSE	FALSE	FALSE	0
p08	2015	06	16	12	33	f	21	l	30.621228707	4	37	1.00403484912	1.17857029417	tactile	right	right	visual	NA	406.085361494	FALSE	FALSE	FALSE	FALSE	FALSE	0
p08	2015	06	16	12	33	f	21	l	30.621228707	4	38	0.909254773986	0.510166510114	tactile	right	left	visual	NA	270.584858488	FALSE	FALSE	FALSE	TRUE	TRUE	0
p08	2015	06	16	12	33	f	21	l	30.621228707	4	39	0.975489991019	1.08983863364	tactile	right	right	tactile	NA	266.470153118	FALSE	FALSE	FALSE	FALSE	TRUE	0
p08	2015	06	16	12	33	f	21	l	30.621228707	4	40	0.91180749191	1.06886153444	visual	left	right	tactile	NA	299.59206935	FALSE	FALSE	FALSE	FALSE	FALSE	0
p08	2015	06	16	12	33	f	21	l	30.46348125	4	41	8.85733557702	1.17762920845	tactile	left	right	visual	NA	332.608910277	FALSE	FALSE	FALSE	FALSE	FALSE	0
p08	2015	06	16	12	33	f	21	l	30.46348125	4	42	1.877108905	0.68408506739	visual	left	right	tactile	NA	288.521562237	FALSE	FALSE	FALSE	FALSE	FALSE	0
p08	2015	06	16	12	33	f	21	l	30.46348125	4	43	1.33898915397	1.41786124787	visual	right	right	visual	NA	383.166987682	FALSE	FALSE	FALSE	FALSE	FALSE	0
p08	2015	06	16	12	33	f	21	l	30.46348125	4	44	1.337369418	0.504843090735	tactile	left	left	tactile	NA	245.431978954	FALSE	FALSE	FALSE	FALSE	FALSE	0
p08	2015	06	16	12	33	f	21	l	30.46348125	4	45	1.18758321903	0.85194259635	visual	left	catch	tactile	NA	96.528484486	FALSE	FALSE	FALSE	FALSE	FALSE	0
p08	2015	06	16	12	33	f	21	l	30.46348125	4	46	1.42005421408	1.30732557433	tactile	left	right	visual	NA	305.028944276	FALSE	FALSE	FALSE	FALSE	FALSE	0
p08	2015	06	16	12	33	f	21	l	30.46348125	4	47	1.01685373113	0.799829465601	visual	left	left	visual	NA	258.712265873	FALSE	FALSE	FALSE	FALSE	FALSE	0
p08	2015	06	16	12	33	f	21	l	30.46348125	4	48	1.05918680318	1.09917519713	tactile	left	left	visual	NA	270.045203622	FALSE	FALSE	FALSE	FALSE	FALSE	0
p08	2015	06	16	12	33	f	21	l	30.46348125	4	49	1.01237114891	0.706704247663	tactile	left	right	tactile	NA	217.007589992	FALSE	FALSE	FALSE	FALSE	FALSE	0
p08	2015	06	16	12	33	f	21	l	30.46348125	4	50	0.981503790012	1.05517331287	tactile	right	left	tactile	NA	105.242677731	FALSE	FALSE	FALSE	TRUE	TRUE	0
p08	2015	06	16	12	33	f	21	l	30.46348125	4	51	1.06075951993	1.00542058434	visual	right	left	tactile	NA	214.704827406	FALSE	FALSE	FALSE	FALSE	FALSE	0
p08	2015	06	16	12	33	f	21	l	30.46348125	4	52	3.09774786094	1.43619427377	visual	left	right	visual	NA	336.127963616	FALSE	FALSE	FALSE	FALSE	FALSE	0
p08	2015	06	16	12	33	f	21	l	30.46348125	4	53	1.18755264604	0.796662850527	visual	right	left	tactile	NA	246.931284899	FALSE	FALSE	FALSE	FALSE	FALSE	0
p08	2015	06	16	12	33	f	21	l	30.46348125	4	54	1.04895091499	1.41750691153	tactile	right	left	visual	NA	61.9635940529	FALSE	FALSE	FALSE	FALSE	FALSE	0
p08	2015	06	16	12	33	f	21	l	30.46348125	4	55	1.36192244105	0.952423875712	visual	left	right	visual	NA	58.1144578755	FALSE	FALSE	FALSE	FALSE	FALSE	0
p08	2015	06	16	12	33	f	21	l	30.46348125	4	56	1.12332102098	1.23208583899	visual	right	left	tactile	NA	180.494811619	FALSE	FALSE	FALSE	FALSE	FALSE	0
p08	2015	06	16	12	33	f	21	l	30.46348125	4	57	1.05605370901	1.18793763767	visual	right	left	tactile	voice	NA	TRUE	FALSE	FALSE	FALSE	FALSE	0
p08	2015	06	16	12	33	f	21	l	30.46348125	4	58	1.2035244999	0.504090990649	visual	left	right	visual	NA	487.567112083	FALSE	FALSE	FALSE	FALSE	FALSE	0
p08	2015	06	16	12	33	f	21	l	30.46348125	4	59	0.902353011072	1.15076366924	visual	left	left	visual	NA	264.676750405	FALSE	FALSE	FALSE	FALSE	TRUE	0
p08	2015	06	16	12	33	f	21	l	30.46348125	4	60	1.22571031889	1.07786329344	visual	right	right	visual	NA	337.399170268	FALSE	FALSE	FALSE	FALSE	FALSE	0
p08	2015	06	16	12	33	f	21	l	30.46348125	4	61	1.57919558603	1.27833560638	visual	left	left	tactile	NA	257.28193298	FALSE	FALSE	FALSE	FALSE	FALSE	0
p08	2015	06	16	12	33	f	21	l	30.46348125	4	62	1.16699153511	0.722790242206	tactile	right	catch	visual	NA	NA	FALSE	FALSE	FALSE	TRUE	TRUE	0
p08	2015	06	16	12	33	f	21	l	30.46348125	4	63	1.77795360796	0.850356287112	visual	right	left	visual	NA	421.87100742	FALSE	FALSE	FALSE	FALSE	TRUE	0
p08	2015	06	16	12	33	f	21	l	30.46348125	4	64	1.08711773599	1.15267603692	tactile	left	catch	tactile	NA	NA	FALSE	FALSE	FALSE	FALSE	FALSE	0
p08	2015	06	16	12	33	f	21	l	30.46348125	4	65	3.38579390803	0.625737232247	tactile	right	left	tactile	NA	307.610755321	FALSE	FALSE	FALSE	FALSE	TRUE	0
p08	2015	06	16	12	33	f	21	l	30.46348125	4	66	0.972645996837	1.13754862839	visual	right	left	tactile	NA	288.719863165	FALSE	FALSE	FALSE	FALSE	FALSE	0
p08	2015	06	16	12	33	f	21	l	30.46348125	4	67	1.22208244703	0.968374010036	tactile	left	left	visual	NA	376.931376755	FALSE	FALSE	FALSE	FALSE	FALSE	0
p08	2015	06	16	12	33	f	21	l	30.46348125	4	68	1.26563096396	1.07635872974	visual	left	left	visual	NA	289.439850021	FALSE	FALSE	FALSE	FALSE	TRUE	0
p08	2015	06	16	12	33	f	21	l	30.46348125	4	69	1.19024393614	1.47640288866	tactile	right	left	tactile	NA	239.708032692	FALSE	FALSE	FALSE	FALSE	TRUE	0
p08	2015	06	16	12	33	f	21	l	30.46348125	4	70	1.29012798984	1.22150282646	tactile	right	left	tactile	NA	264.772469876	FALSE	FALSE	FALSE	TRUE	TRUE	0
p08	2015	06	16	12	33	f	21	l	30.46348125	4	71	4.84838123899	1.42230781116	tactile	left	right	visual	NA	293.987581506	FALSE	FALSE	FALSE	FALSE	TRUE	0
p08	2015	06	16	12	33	f	21	l	30.46348125	4	72	1.81390723307	0.734614130326	tactile	left	right	visual	NA	237.809512299	FALSE	FALSE	FALSE	FALSE	FALSE	0
p08	2015	06	16	12	33	f	21	l	30.46348125	4	73	1.68711019889	1.01398664804	visual	left	right	tactile	NA	230.324522592	FALSE	FALSE	FALSE	TRUE	TRUE	0
p08	2015	06	16	12	33	f	21	l	30.46348125	4	74	1.4390765659	1.3549268731	tactile	left	right	visual	NA	284.770061495	FALSE	FALSE	FALSE	FALSE	FALSE	0
p08	2015	06	16	12	33	f	21	l	30.46348125	4	75	1.498992156	0.635901575269	tactile	left	catch	tactile	NA	211.758472491	FALSE	FALSE	FALSE	FALSE	FALSE	0
p08	2015	06	16	12	33	f	21	l	30.46348125	4	76	1.48767447588	1.14345354187	visual	right	right	tactile	NA	304.715513717	FALSE	FALSE	FALSE	FALSE	FALSE	0
p08	2015	06	16	12	33	f	21	l	30.46348125	4	77	3.37009302503	1.19988594825	visual	right	right	visual	NA	397.833146388	FALSE	FALSE	FALSE	FALSE	FALSE	0
p08	2015	06	16	12	33	f	21	l	30.46348125	4	78	1.41717459797	1.32847731453	tactile	right	right	visual	NA	249.434440164	FALSE	FALSE	FALSE	FALSE	TRUE	0
p08	2015	06	16	12	33	f	21	l	30.46348125	4	79	1.14599661087	0.862131094198	tactile	right	left	tactile	NA	361.950727412	FALSE	FALSE	FALSE	FALSE	FALSE	0
p08	2015	06	16	12	33	f	21	l	30.46348125	4	80	1.17392918002	0.869511240359	tactile	right	right	visual	NA	138.717619237	FALSE	FALSE	FALSE	FALSE	FALSE	0
p08	2015	06	16	12	33	f	21	l	35.8623641971	4	81	6.65864347294	0.768872209488	tactile	right	catch	tactile	NA	NA	FALSE	FALSE	FALSE	FALSE	FALSE	0
p08	2015	06	16	12	33	f	21	l	35.8623641971	4	82	1.54416723503	0.802171281938	visual	right	left	visual	NA	401.148326462	FALSE	FALSE	FALSE	FALSE	FALSE	0
p08	2015	06	16	12	33	f	21	l	35.8623641971	4	83	1.187940676	0.995377995959	tactile	left	left	visual	NA	317.585129756	FALSE	FALSE	FALSE	FALSE	FALSE	0
p08	2015	06	16	12	33	f	21	l	35.8623641971	4	84	0.875213628169	0.805394947575	tactile	left	right	tactile	NA	262.769415043	FALSE	FALSE	FALSE	FALSE	FALSE	0
p08	2015	06	16	12	33	f	21	l	35.8623641971	4	85	0.821619169088	0.630812453636	tactile	right	right	tactile	NA	306.741256965	FALSE	FALSE	FALSE	TRUE	TRUE	0
p08	2015	06	16	12	33	f	21	l	35.8623641971	4	86	1.0482294769	0.943221904017	tactile	left	right	tactile	NA	225.032135611	FALSE	FALSE	FALSE	FALSE	FALSE	0
p08	2015	06	16	12	33	f	21	l	35.8623641971	4	87	1.30354227405	1.12690429817	tactile	right	catch	visual	NA	155.290607596	FALSE	FALSE	FALSE	FALSE	FALSE	0
p08	2015	06	16	12	33	f	21	l	35.8623641971	4	88	1.26764084399	1.46841959324	tactile	right	left	visual	NA	320.669354172	FALSE	FALSE	FALSE	FALSE	FALSE	0
p08	2015	06	16	12	33	f	21	l	35.8623641971	4	89	1.15268285992	1.46157203132	visual	left	right	tactile	NA	608.048863243	FALSE	FALSE	FALSE	FALSE	TRUE	0
p08	2015	06	16	12	33	f	21	l	35.8623641971	4	90	1.66754450812	0.680222751589	visual	right	right	tactile	NA	259.02131293	FALSE	FALSE	FALSE	FALSE	FALSE	0
p08	2015	06	16	12	33	f	21	l	35.8623641971	4	91	2.07717611082	1.42519435857	visual	right	right	tactile	NA	330.04016825	FALSE	FALSE	FALSE	FALSE	TRUE	0
p08	2015	06	16	12	33	f	21	l	35.8623641971	4	92	1.77380680107	1.09515209189	visual	left	left	visual	NA	309.839807684	FALSE	FALSE	FALSE	FALSE	FALSE	0
p08	2015	06	16	12	33	f	21	l	35.8623641971	4	93	1.2063203461	1.20408771849	visual	right	right	tactile	voice	NA	TRUE	FALSE	FALSE	FALSE	TRUE	0
p08	2015	06	16	12	33	f	21	l	35.8623641971	4	94	1.15124237002	1.20173738534	tactile	left	left	tactile	NA	309.097213438	FALSE	FALSE	FALSE	FALSE	FALSE	0
p08	2015	06	16	12	33	f	21	l	35.8623641971	4	95	1.10171489906	1.17231894061	tactile	left	right	tactile	NA	224.997790065	FALSE	FALSE	FALSE	FALSE	FALSE	0
p08	2015	06	16	12	33	f	21	l	35.8623641971	4	96	1.16349478718	0.989720887918	visual	right	left	visual	NA	352.387453662	FALSE	FALSE	FALSE	FALSE	FALSE	0
p08	2015	06	16	12	33	f	21	l	35.8623641971	4	97	1.74985024403	0.660980017563	visual	right	right	tactile	NA	286.465435056	FALSE	FALSE	FALSE	FALSE	FALSE	0
p08	2015	06	16	12	33	f	21	l	35.8623641971	4	98	1.51270904508	1.47650578725	visual	left	right	visual	NA	325.589167187	FALSE	FALSE	FALSE	FALSE	FALSE	0
p08	2015	06	16	12	33	f	21	l	35.8623641971	4	99	1.5461827598	0.893700184961	tactile	left	left	visual	NA	156.114248559	FALSE	FALSE	FALSE	FALSE	FALSE	0
p08	2015	06	16	12	33	f	21	l	35.8623641971	4	100	1.23400352686	1.16035618579	visual	left	left	tactile	NA	86.7630527355	FALSE	FALSE	FALSE	FALSE	TRUE	0
p08	2015	06	16	12	33	f	21	l	35.8623641971	4	101	1.25084498199	0.83339138431	visual	right	right	visual	NA	372.474022442	FALSE	FALSE	FALSE	FALSE	FALSE	0
p08	2015	06	16	12	33	f	21	l	35.8623641971	4	102	0.873618685175	1.21102501516	tactile	right	right	tactile	voice	NA	TRUE	FALSE	FALSE	FALSE	FALSE	0
p08	2015	06	16	12	33	f	21	l	35.8623641971	4	103	1.09078544891	0.822476252324	visual	left	left	visual	NA	469.745518407	FALSE	FALSE	FALSE	FALSE	FALSE	0
p08	2015	06	16	12	33	f	21	l	35.8623641971	4	104	1.11450167606	0.677872895342	visual	left	left	tactile	NA	321.164599387	FALSE	FALSE	FALSE	FALSE	TRUE	0
p08	2015	06	16	12	33	f	21	l	35.8623641971	4	105	8.67484449712	0.640190724911	visual	left	left	tactile	NA	274.290727684	FALSE	FALSE	FALSE	FALSE	TRUE	0
p08	2015	06	16	12	33	f	21	l	35.8623641971	4	106	1.33813756495	0.582521152588	tactile	right	left	tactile	NA	287.684614072	FALSE	FALSE	FALSE	FALSE	FALSE	0
p08	2015	06	16	12	33	f	21	l	35.8623641971	4	107	1.05228827312	0.595091228079	visual	left	left	tactile	NA	300.761348335	FALSE	FALSE	FALSE	FALSE	FALSE	0
p08	2015	06	16	12	33	f	21	l	35.8623641971	4	108	1.88748633	0.636689801438	tactile	left	catch	visual	NA	393.818415934	FALSE	FALSE	FALSE	FALSE	FALSE	0
p08	2015	06	16	12	33	f	21	l	35.8623641971	4	109	1.45602949988	1.03177877554	visual	left	catch	visual	NA	NA	FALSE	FALSE	FALSE	FALSE	TRUE	0
p08	2015	06	16	12	33	f	21	l	35.8623641971	4	110	1.82239209814	0.624935149509	visual	right	left	visual	NA	391.195555218	FALSE	FALSE	FALSE	FALSE	FALSE	0
p08	2015	06	16	12	33	f	21	l	35.8623641971	4	111	1.81842986005	1.26970128429	tactile	left	right	tactile	NA	307.741550263	FALSE	FALSE	FALSE	FALSE	FALSE	0
p08	2015	06	16	12	33	f	21	l	35.8623641971	4	112	1.47914213617	1.07469956168	visual	left	right	tactile	NA	299.490330042	FALSE	FALSE	FALSE	FALSE	TRUE	0
p08	2015	06	16	12	33	f	21	l	35.8623641971	4	113	1.07949748007	0.78475988202	visual	left	right	tactile	NA	278.688334627	FALSE	FALSE	FALSE	FALSE	FALSE	0
p08	2015	06	16	12	33	f	21	l	35.8623641971	4	114	9.40280190203	0.849196907342	tactile	left	right	tactile	NA	311.048179166	FALSE	FALSE	FALSE	FALSE	FALSE	0
p08	2015	06	16	12	33	f	21	l	35.8623641971	4	115	2.15260620392	0.816521871162	tactile	left	left	tactile	NA	399.168381467	FALSE	FALSE	FALSE	FALSE	FALSE	0
p08	2015	06	16	12	33	f	21	l	35.8623641971	4	116	1.09912008583	1.15408463582	tactile	left	left	visual	NA	355.078284862	FALSE	FALSE	FALSE	TRUE	TRUE	0
p08	2015	06	16	12	33	f	21	l	35.8623641971	4	117	0.931189930066	1.27655399267	tactile	left	left	tactile	NA	292.295346968	FALSE	FALSE	FALSE	FALSE	FALSE	0
p08	2015	06	16	12	33	f	21	l	35.8623641971	4	118	1.19506764715	1.36570892332	visual	left	right	visual	NA	441.635762108	FALSE	FALSE	FALSE	FALSE	TRUE	0
p08	2015	06	16	12	33	f	21	l	35.8623641971	4	119	1.32447357895	1.40137694519	visual	left	left	visual	NA	241.708939197	FALSE	FALSE	FALSE	FALSE	TRUE	0
p08	2015	06	16	12	33	f	21	l	35.8623641971	4	120	1.12114643794	1.15572264929	tactile	left	left	tactile	NA	311.725574313	FALSE	FALSE	FALSE	FALSE	TRUE	0
p08	2015	06	16	12	33	f	21	l	35.2966978869	4	121	18.0657016211	1.22132501817	tactile	right	left	visual	NA	252.576947212	FALSE	FALSE	FALSE	FALSE	TRUE	0
p08	2015	06	16	12	33	f	21	l	35.2966978869	4	122	1.6968616161	0.609772768183	tactile	right	right	tactile	NA	294.457270531	FALSE	FALSE	FALSE	FALSE	FALSE	0
p08	2015	06	16	12	33	f	21	l	35.2966978869	4	123	1.70030470914	0.728034516337	tactile	right	right	tactile	NA	132.073191227	FALSE	FALSE	FALSE	FALSE	TRUE	0
p08	2015	06	16	12	33	f	21	l	35.2966978869	4	124	2.214221081	1.4193528148	visual	right	right	tactile	NA	276.134635787	FALSE	FALSE	FALSE	FALSE	FALSE	0
p08	2015	06	16	12	33	f	21	l	35.2966978869	4	125	1.37920209812	1.47981783314	visual	left	right	tactile	NA	255.854220595	FALSE	FALSE	FALSE	FALSE	FALSE	0
p08	2015	06	16	12	33	f	21	l	35.2966978869	4	126	1.536349545	1.47057947169	tactile	left	right	visual	NA	300.774480915	FALSE	FALSE	FALSE	FALSE	TRUE	0
p08	2015	06	16	12	33	f	21	l	35.2966978869	4	127	1.681460205	0.66940096678	visual	left	right	visual	NA	323.245815933	FALSE	FALSE	FALSE	FALSE	FALSE	0
p08	2015	06	16	12	33	f	21	l	35.2966978869	4	128	1.50034019607	1.29166823466	tactile	left	right	tactile	NA	281.21805517	FALSE	FALSE	FALSE	FALSE	FALSE	0
p08	2015	06	16	12	33	f	21	l	35.2966978869	4	129	1.28278847411	1.08300178323	visual	left	catch	visual	NA	NA	FALSE	FALSE	FALSE	FALSE	TRUE	0
p08	2015	06	16	12	33	f	21	l	35.2966978869	4	130	1.71426019887	0.5118701995	tactile	left	right	visual	NA	276.227178052	FALSE	FALSE	FALSE	FALSE	FALSE	0
p08	2015	06	16	12	33	f	21	l	35.2966978869	4	131	1.149365725	1.39288396743	visual	right	right	visual	NA	442.573024426	FALSE	FALSE	FALSE	FALSE	FALSE	0
p08	2015	06	16	12	33	f	21	l	35.2966978869	4	132	1.07701925398	0.925917112366	tactile	right	right	visual	NA	296.275086235	FALSE	FALSE	FALSE	FALSE	FALSE	0
p08	2015	06	16	12	33	f	21	l	35.2966978869	4	133	1.60890654195	1.16784102191	visual	right	right	visual	NA	293.017368764	FALSE	FALSE	FALSE	FALSE	FALSE	0
p08	2015	06	16	12	33	f	21	l	35.2966978869	4	134	1.10591190192	0.749487353688	tactile	left	right	tactile	NA	287.127516931	FALSE	FALSE	FALSE	FALSE	FALSE	0
p08	2015	06	16	12	33	f	21	l	35.2966978869	4	135	1.28944154503	0.972858938888	visual	left	left	visual	NA	189.368614694	FALSE	FALSE	FALSE	FALSE	FALSE	0
p08	2015	06	16	12	33	f	21	l	35.2966978869	4	136	1.83880253485	1.0631579217	visual	left	right	visual	NA	290.369130904	FALSE	FALSE	FALSE	FALSE	FALSE	0
p08	2015	06	16	12	33	f	21	l	35.2966978869	4	137	1.33642035187	1.09418104236	tactile	right	left	visual	NA	139.032776235	FALSE	FALSE	FALSE	FALSE	FALSE	0
p08	2015	06	16	12	33	f	21	l	35.2966978869	4	138	1.1802414828	0.535338860706	visual	right	left	tactile	NA	365.559031954	FALSE	FALSE	FALSE	FALSE	FALSE	0
p08	2015	06	16	12	33	f	21	l	35.2966978869	4	139	2.50522340089	0.662586435027	tactile	left	right	visual	NA	350.171133643	FALSE	FALSE	FALSE	FALSE	FALSE	0
p08	2015	06	16	12	33	f	21	l	35.2966978869	4	140	0.876384354895	0.961765602155	tactile	left	left	tactile	voice	NA	TRUE	FALSE	FALSE	FALSE	FALSE	0
p08	2015	06	16	12	33	f	21	l	35.2966978869	4	141	6.33519924316	1.43527372938	tactile	right	left	visual	NA	280.991814332	FALSE	FALSE	FALSE	FALSE	FALSE	0
p08	2015	06	16	12	33	f	21	l	35.2966978869	4	142	1.41608880111	1.1226385951	visual	right	right	tactile	NA	217.427139636	FALSE	FALSE	FALSE	FALSE	FALSE	0
p08	2015	06	16	12	33	f	21	l	35.2966978869	4	143	4.64232253586	0.633136391286	tactile	left	left	tactile	NA	312.791133299	FALSE	FALSE	FALSE	FALSE	FALSE	0
p08	2015	06	16	12	33	f	21	l	35.2966978869	4	144	0.871893164935	1.03919928265	visual	right	left	visual	NA	245.413764147	FALSE	FALSE	FALSE	FALSE	FALSE	0
p08	2015	06	16	12	33	f	21	l	35.2966978869	4	145	1.09274811298	0.873444984965	tactile	right	right	visual	NA	325.948654674	FALSE	FALSE	FALSE	FALSE	FALSE	0
p08	2015	06	16	12	33	f	21	l	35.2966978869	4	146	1.77268513408	1.40299184948	tactile	left	left	visual	NA	193.332870025	FALSE	FALSE	FALSE	FALSE	FALSE	0
p08	2015	06	16	12	33	f	21	l	35.2966978869	4	147	1.26792507921	0.802948505465	tactile	left	catch	visual	NA	419.806163292	FALSE	FALSE	FALSE	FALSE	FALSE	0
p08	2015	06	16	12	33	f	21	l	35.2966978869	4	148	1.465905688	1.43171876653	visual	left	left	tactile	NA	447.934375145	FALSE	FALSE	FALSE	FALSE	FALSE	0
p08	2015	06	16	12	33	f	21	l	35.2966978869	4	149	1.27536520711	0.845220417549	tactile	left	left	visual	NA	302.982384106	FALSE	FALSE	FALSE	FALSE	FALSE	0
p08	2015	06	16	12	33	f	21	l	35.2966978869	4	150	1.11827489897	0.75770487653	visual	right	catch	visual	NA	419.164655032	FALSE	FALSE	FALSE	FALSE	FALSE	0
p08	2015	06	16	12	33	f	21	l	35.2966978869	4	151	1.70653329999	1.34666634823	visual	left	catch	tactile	NA	NA	FALSE	FALSE	FALSE	FALSE	FALSE	0
p08	2015	06	16	12	33	f	21	l	35.2966978869	4	152	1.09526870097	0.560097334917	visual	right	left	tactile	NA	317.557389615	FALSE	FALSE	FALSE	FALSE	FALSE	0
p08	2015	06	16	12	33	f	21	l	35.2966978869	4	153	0.985699234996	0.512393646362	visual	right	right	tactile	NA	346.414968139	FALSE	FALSE	FALSE	FALSE	FALSE	0
p08	2015	06	16	12	33	f	21	l	35.2966978869	4	154	0.845804809127	0.556940728234	visual	right	right	visual	NA	210.985314101	FALSE	FALSE	FALSE	FALSE	FALSE	0
p08	2015	06	16	12	33	f	21	l	35.2966978869	4	155	1.88838071306	1.086939039	tactile	right	right	tactile	NA	311.875498621	FALSE	FALSE	FALSE	FALSE	FALSE	0
p08	2015	06	16	12	33	f	21	l	35.2966978869	4	156	3.04246473312	0.995189087883	visual	left	right	tactile	NA	245.826827595	FALSE	FALSE	FALSE	FALSE	FALSE	0
p08	2015	06	16	12	33	f	21	l	35.2966978869	4	157	1.50749417511	1.21900302252	tactile	right	catch	tactile	NA	377.917550271	FALSE	FALSE	FALSE	FALSE	FALSE	0
p08	2015	06	16	12	33	f	21	l	35.2966978869	4	158	1.11820378317	1.24021948012	visual	right	left	visual	NA	355.864830548	FALSE	FALSE	FALSE	FALSE	TRUE	0
p08	2015	06	16	12	33	f	21	l	35.2966978869	4	159	1.38142155204	1.36423800023	tactile	right	left	visual	NA	328.597611282	FALSE	FALSE	FALSE	FALSE	FALSE	0
p08	2015	06	16	12	33	f	21	l	35.2966978869	4	160	1.50223804894	1.19205873201	tactile	right	right	visual	NA	378.944895696	FALSE	FALSE	FALSE	FALSE	FALSE	0
p08	2015	06	16	12	33	f	21	l	78.0476873301	5	1	6.52740317583	1.05485074017	visual	right	left	tactile	NA	213.009970495	FALSE	FALSE	FALSE	FALSE	FALSE	0
p08	2015	06	16	12	33	f	21	l	78.0476873301	5	2	1.66882790299	0.830063530795	tactile	right	left	tactile	NA	223.574160831	FALSE	FALSE	FALSE	FALSE	FALSE	0
p08	2015	06	16	12	33	f	21	l	78.0476873301	5	3	1.58848311589	0.934417303182	tactile	left	right	visual	NA	248.761977302	FALSE	FALSE	FALSE	FALSE	FALSE	0
p08	2015	06	16	12	33	f	21	l	78.0476873301	5	4	1.55824003113	1.13071399018	visual	right	right	visual	voice	NA	TRUE	FALSE	FALSE	FALSE	FALSE	0
p08	2015	06	16	12	33	f	21	l	78.0476873301	5	5	1.41807918483	1.34493689626	tactile	left	left	visual	NA	355.356276268	FALSE	FALSE	FALSE	FALSE	FALSE	0
p08	2015	06	16	12	33	f	21	l	78.0476873301	5	6	1.44378190488	1.38899047887	visual	left	left	tactile	NA	226.233953843	FALSE	FALSE	FALSE	FALSE	FALSE	0
p08	2015	06	16	12	33	f	21	l	78.0476873301	5	7	5.295070583	0.658472210242	visual	left	right	tactile	NA	72.710997425	FALSE	FALSE	FALSE	FALSE	FALSE	0
p08	2015	06	16	12	33	f	21	l	78.0476873301	5	8	1.71950202086	1.34399159008	tactile	right	right	tactile	NA	260.4619388	FALSE	FALSE	FALSE	FALSE	FALSE	0
p08	2015	06	16	12	33	f	21	l	78.0476873301	5	9	1.45942490501	1.11711903287	tactile	left	left	tactile	NA	253.985562827	FALSE	FALSE	FALSE	FALSE	TRUE	0
p08	2015	06	16	12	33	f	21	l	78.0476873301	5	10	1.49273766996	1.47131786399	visual	left	right	visual	NA	257.115159649	FALSE	FALSE	FALSE	FALSE	TRUE	0
p08	2015	06	16	12	33	f	21	l	78.0476873301	5	11	1.42054511304	1.15715032357	tactile	right	right	visual	NA	256.603539223	FALSE	FALSE	FALSE	FALSE	FALSE	0
p08	2015	06	16	12	33	f	21	l	78.0476873301	5	12	1.38395719999	1.36624510986	visual	right	right	visual	NA	255.007136846	FALSE	FALSE	FALSE	FALSE	FALSE	0
p08	2015	06	16	12	33	f	21	l	78.0476873301	5	13	1.16692275507	1.36316847537	visual	right	right	tactile	NA	219.914013054	FALSE	FALSE	FALSE	FALSE	FALSE	0
p08	2015	06	16	12	33	f	21	l	78.0476873301	5	14	1.18541529798	0.682428475784	tactile	right	left	visual	NA	254.350418923	FALSE	FALSE	FALSE	FALSE	FALSE	0
p08	2015	06	16	12	33	f	21	l	78.0476873301	5	15	1.53872796404	1.44389219267	tactile	right	left	visual	NA	25.6476330105	FALSE	FALSE	FALSE	FALSE	FALSE	0
p08	2015	06	16	12	33	f	21	l	78.0476873301	5	16	1.59593488998	0.944829763367	visual	left	right	visual	NA	217.190513154	FALSE	FALSE	FALSE	FALSE	TRUE	0
p08	2015	06	16	12	33	f	21	l	78.0476873301	5	17	1.12465033587	1.18786852635	tactile	right	left	tactile	NA	149.199413368	FALSE	FALSE	FALSE	FALSE	FALSE	0
p08	2015	06	16	12	33	f	21	l	78.0476873301	5	18	1.49290801282	0.761294640235	tactile	right	left	tactile	NA	250.892130658	FALSE	FALSE	FALSE	FALSE	FALSE	0
p08	2015	06	16	12	33	f	21	l	78.0476873301	5	19	1.29875080194	1.13201926591	visual	right	right	tactile	NA	223.423598567	FALSE	FALSE	FALSE	FALSE	FALSE	0
p08	2015	06	16	12	33	f	21	l	78.0476873301	5	20	1.360853886	1.21757448335	visual	left	catch	tactile	NA	301.252831472	FALSE	FALSE	FALSE	FALSE	FALSE	0
p08	2015	06	16	12	33	f	21	l	78.0476873301	5	21	1.13185605593	0.895719580061	tactile	left	right	visual	NA	979.143147357	FALSE	FALSE	FALSE	TRUE	TRUE	0
p08	2015	06	16	12	33	f	21	l	78.0476873301	5	22	1.29404802294	1.48602554246	tactile	right	left	tactile	NA	304.309002124	FALSE	FALSE	FALSE	FALSE	FALSE	0
p08	2015	06	16	12	33	f	21	l	78.0476873301	5	23	6.27452092199	0.580248215617	visual	left	right	visual	NA	348.407943035	FALSE	FALSE	FALSE	FALSE	FALSE	0
p08	2015	06	16	12	33	f	21	l	78.0476873301	5	24	1.22218678286	1.01373332462	visual	right	right	tactile	NA	111.968375044	FALSE	FALSE	FALSE	FALSE	FALSE	0
p08	2015	06	16	12	33	f	21	l	78.0476873301	5	25	5.36089621414	1.45838142833	tactile	left	left	visual	NA	335.217686137	FALSE	FALSE	FALSE	FALSE	FALSE	0
p08	2015	06	16	12	33	f	21	l	78.0476873301	5	26	1.37054246105	0.784419155148	visual	right	left	tactile	NA	239.993811585	FALSE	FALSE	FALSE	FALSE	FALSE	0
p08	2015	06	16	12	33	f	21	l	78.0476873301	5	27	1.38447303395	0.687474377683	tactile	left	left	visual	NA	257.70142395	FALSE	FALSE	FALSE	FALSE	TRUE	0
p08	2015	06	16	12	33	f	21	l	78.0476873301	5	28	1.66738202795	0.710936467957	visual	left	right	tactile	NA	214.131166926	FALSE	FALSE	FALSE	FALSE	FALSE	0
p08	2015	06	16	12	33	f	21	l	78.0476873301	5	29	1.31507828715	1.44457844177	visual	right	catch	tactile	NA	363.993207691	FALSE	FALSE	FALSE	FALSE	TRUE	0
p08	2015	06	16	12	33	f	21	l	78.0476873301	5	30	1.343436111	0.890314292097	tactile	left	right	visual	NA	333.240608452	FALSE	FALSE	FALSE	FALSE	FALSE	0
p08	2015	06	16	12	33	f	21	l	78.0476873301	5	31	1.09393937909	1.11192672036	visual	left	catch	tactile	NA	134.550340241	FALSE	FALSE	FALSE	FALSE	FALSE	0
p08	2015	06	16	12	33	f	21	l	78.0476873301	5	32	2.06355558685	0.684308981355	tactile	right	right	tactile	NA	233.645838453	FALSE	FALSE	FALSE	FALSE	FALSE	0
p08	2015	06	16	12	33	f	21	l	78.0476873301	5	33	1.20169987204	0.764342496367	tactile	right	right	visual	NA	355.391910067	FALSE	FALSE	FALSE	FALSE	FALSE	0
p08	2015	06	16	12	33	f	21	l	78.0476873301	5	34	1.26236383594	0.685188192624	visual	right	right	tactile	NA	118.173113093	FALSE	FALSE	FALSE	FALSE	FALSE	0
p08	2015	06	16	12	33	f	21	l	78.0476873301	5	35	1.19910542504	0.799935536954	visual	right	catch	tactile	NA	52.276509814	FALSE	FALSE	FALSE	FALSE	FALSE	0
p08	2015	06	16	12	33	f	21	l	78.0476873301	5	36	1.42924386309	0.73502980097	tactile	right	left	tactile	NA	39.8299375083	FALSE	FALSE	FALSE	FALSE	FALSE	0
p08	2015	06	16	12	33	f	21	l	78.0476873301	5	37	1.30152714206	1.03671497511	tactile	right	catch	tactile	NA	310.103698634	FALSE	FALSE	FALSE	FALSE	FALSE	0
p08	2015	06	16	12	33	f	21	l	78.0476873301	5	38	5.25930597004	1.04521992471	visual	left	right	visual	NA	343.426778913	FALSE	FALSE	FALSE	FALSE	FALSE	0
p08	2015	06	16	12	33	f	21	l	78.0476873301	5	39	1.45142862992	0.966032414893	tactile	left	right	visual	NA	300.679095555	FALSE	FALSE	FALSE	FALSE	FALSE	0
p08	2015	06	16	12	33	f	21	l	78.0476873301	5	40	1.32561521698	0.918786182052	visual	right	left	tactile	NA	298.979797401	FALSE	FALSE	FALSE	FALSE	FALSE	0
p08	2015	06	16	12	33	f	21	l	27.203141504	5	41	12.1570090391	0.720082676339	visual	right	left	tactile	NA	395.246965345	FALSE	FALSE	FALSE	FALSE	FALSE	0
p08	2015	06	16	12	33	f	21	l	27.203141504	5	42	1.28254426597	0.533172718126	visual	left	left	visual	NA	303.25818155	FALSE	FALSE	FALSE	FALSE	FALSE	0
p08	2015	06	16	12	33	f	21	l	27.203141504	5	43	1.4664414709	0.717013606296	tactile	right	catch	tactile	NA	285.113938153	FALSE	FALSE	FALSE	FALSE	FALSE	0
p08	2015	06	16	12	33	f	21	l	27.203141504	5	44	1.424458761	0.708146694594	tactile	right	left	tactile	NA	190.737282159	FALSE	FALSE	FALSE	FALSE	FALSE	0
p08	2015	06	16	12	33	f	21	l	27.203141504	5	45	1.56383472099	1.48603278674	visual	right	right	tactile	NA	235.923832981	FALSE	FALSE	FALSE	FALSE	FALSE	0
p08	2015	06	16	12	33	f	21	l	27.203141504	5	46	1.5431082861	1.188023612	visual	right	right	visual	NA	372.550670523	FALSE	FALSE	FALSE	FALSE	FALSE	0
p08	2015	06	16	12	33	f	21	l	27.203141504	5	47	1.37071845494	1.41567625883	visual	left	left	visual	NA	181.095492793	FALSE	FALSE	FALSE	FALSE	FALSE	0
p08	2015	06	16	12	33	f	21	l	27.203141504	5	48	1.28937259899	1.26424857899	tactile	right	left	tactile	NA	253.926124657	FALSE	FALSE	FALSE	FALSE	TRUE	0
p08	2015	06	16	12	33	f	21	l	27.203141504	5	49	1.3950893709	0.860757552903	visual	left	left	tactile	NA	226.827282691	FALSE	FALSE	FALSE	FALSE	FALSE	0
p08	2015	06	16	12	33	f	21	l	27.203141504	5	50	1.25948741008	1.43890231645	visual	right	left	visual	NA	246.066766093	FALSE	FALSE	FALSE	FALSE	FALSE	0
p08	2015	06	16	12	33	f	21	l	27.203141504	5	51	1.88068697997	1.03500072464	visual	left	left	tactile	NA	117.573305964	FALSE	FALSE	FALSE	FALSE	FALSE	0
p08	2015	06	16	12	33	f	21	l	27.203141504	5	52	1.33519366197	1.43348777774	tactile	left	left	tactile	NA	231.934008654	FALSE	FALSE	FALSE	FALSE	FALSE	0
p08	2015	06	16	12	33	f	21	l	27.203141504	5	53	1.23086186498	1.49131581426	visual	left	left	tactile	NA	248.86889942	FALSE	FALSE	FALSE	FALSE	FALSE	0
p08	2015	06	16	12	33	f	21	l	27.203141504	5	54	1.35712408694	1.40490852603	tactile	left	left	visual	NA	273.029665696	FALSE	FALSE	FALSE	FALSE	FALSE	0
p08	2015	06	16	12	33	f	21	l	27.203141504	5	55	1.18532036385	0.515572929669	tactile	left	catch	tactile	NA	347.386736888	FALSE	FALSE	FALSE	FALSE	TRUE	0
p08	2015	06	16	12	33	f	21	l	27.203141504	5	56	2.88106651814	0.54925283609	visual	right	left	tactile	NA	297.999186674	FALSE	FALSE	FALSE	FALSE	FALSE	0
p08	2015	06	16	12	33	f	21	l	27.203141504	5	57	1.47304225806	1.45162870267	tactile	right	left	visual	NA	312.072487082	FALSE	FALSE	FALSE	FALSE	FALSE	0
p08	2015	06	16	12	33	f	21	l	27.203141504	5	58	0.982524399878	1.45884601793	tactile	right	right	tactile	NA	260.500784498	FALSE	FALSE	FALSE	FALSE	FALSE	0
p08	2015	06	16	12	33	f	21	l	27.203141504	5	59	1.88495228509	0.962442336457	tactile	right	right	visual	NA	298.488111235	FALSE	FALSE	FALSE	FALSE	FALSE	0
p08	2015	06	16	12	33	f	21	l	27.203141504	5	60	1.04847170203	0.855897716035	tactile	left	right	tactile	NA	224.756878568	FALSE	FALSE	FALSE	FALSE	FALSE	0
p08	2015	06	16	12	33	f	21	l	27.203141504	5	61	1.63205588888	1.03870035828	tactile	left	right	tactile	NA	130.888860207	FALSE	FALSE	FALSE	FALSE	TRUE	0
p08	2015	06	16	12	33	f	21	l	27.203141504	5	62	1.32938556513	1.08535621662	tactile	right	left	visual	NA	257.918325951	FALSE	FALSE	FALSE	FALSE	FALSE	0
p08	2015	06	16	12	33	f	21	l	27.203141504	5	63	1.23942666897	0.785344081163	visual	right	left	tactile	NA	222.085469402	FALSE	FALSE	FALSE	FALSE	FALSE	0
p08	2015	06	16	12	33	f	21	l	27.203141504	5	64	1.07950797491	1.34532139752	visual	left	left	visual	NA	85.5864491314	FALSE	FALSE	FALSE	FALSE	FALSE	0
p08	2015	06	16	12	33	f	21	l	27.203141504	5	65	1.18386642495	0.871578938649	tactile	right	right	tactile	NA	228.000582196	FALSE	FALSE	FALSE	FALSE	TRUE	0
p08	2015	06	16	12	33	f	21	l	27.203141504	5	66	1.07489239797	0.67926765734	visual	left	right	visual	NA	291.585340165	FALSE	FALSE	FALSE	FALSE	FALSE	0
p08	2015	06	16	12	33	f	21	l	27.203141504	5	67	1.26384694898	0.509178228322	tactile	right	catch	visual	NA	NA	FALSE	FALSE	FALSE	FALSE	TRUE	0
p08	2015	06	16	12	33	f	21	l	27.203141504	5	68	1.63027858408	0.57669169163	visual	right	left	visual	NA	295.323695987	FALSE	FALSE	FALSE	FALSE	FALSE	0
p08	2015	06	16	12	33	f	21	l	27.203141504	5	69	0.868933400139	1.39921115236	visual	right	right	visual	NA	520.637043985	FALSE	FALSE	FALSE	FALSE	FALSE	0
p08	2015	06	16	12	33	f	21	l	27.203141504	5	70	1.17608927889	0.52666784826	visual	right	left	visual	NA	272.974202409	FALSE	FALSE	FALSE	FALSE	TRUE	0
p08	2015	06	16	12	33	f	21	l	27.203141504	5	71	1.53406313993	1.16475644359	tactile	left	right	visual	NA	291.798203019	FALSE	FALSE	FALSE	FALSE	FALSE	0
p08	2015	06	16	12	33	f	21	l	27.203141504	5	72	1.26313759503	0.699986640248	visual	right	right	tactile	NA	228.751818417	FALSE	FALSE	FALSE	FALSE	FALSE	0
p08	2015	06	16	12	33	f	21	l	27.203141504	5	73	1.43088474008	0.87418755012	visual	left	left	visual	NA	254.1747496	FALSE	FALSE	FALSE	FALSE	FALSE	0
p08	2015	06	16	12	33	f	21	l	27.203141504	5	74	0.9941091449	0.669832977793	tactile	right	right	tactile	NA	44.8619429953	FALSE	FALSE	FALSE	FALSE	FALSE	0
p08	2015	06	16	12	33	f	21	l	27.203141504	5	75	1.17385104997	0.635911111537	tactile	left	left	visual	NA	118.958601961	FALSE	FALSE	FALSE	FALSE	FALSE	0
p08	2015	06	16	12	33	f	21	l	27.203141504	5	76	1.19260988105	1.23043736193	tactile	right	right	tactile	NA	266.964103794	FALSE	FALSE	FALSE	FALSE	FALSE	0
p08	2015	06	16	12	33	f	21	l	27.203141504	5	77	6.36020854092	0.860327026855	visual	left	left	tactile	NA	5.94733376056	FALSE	FALSE	FALSE	FALSE	TRUE	0
p08	2015	06	16	12	33	f	21	l	27.203141504	5	78	1.68372165202	1.16445771463	tactile	right	right	tactile	NA	282.095750794	FALSE	FALSE	FALSE	FALSE	TRUE	0
p08	2015	06	16	12	33	f	21	l	27.203141504	5	79	2.52554046805	0.517022358986	tactile	right	left	visual	NA	261.185173644	FALSE	FALSE	FALSE	FALSE	FALSE	0
p08	2015	06	16	12	33	f	21	l	27.203141504	5	80	9.99328128598	0.612920522331	visual	right	right	tactile	NA	257.014250383	FALSE	FALSE	FALSE	FALSE	FALSE	0
p08	2015	06	16	12	33	f	21	l	30.2137544318	5	81	6.02411156707	0.961573179631	tactile	right	right	visual	NA	402.066491079	FALSE	FALSE	FALSE	FALSE	FALSE	0
p08	2015	06	16	12	33	f	21	l	30.2137544318	5	82	1.67477910896	1.35110738484	visual	right	right	visual	NA	315.730122849	FALSE	FALSE	FALSE	FALSE	FALSE	0
p08	2015	06	16	12	33	f	21	l	30.2137544318	5	83	1.81231650407	1.33851176375	visual	left	right	tactile	NA	257.228036644	FALSE	FALSE	FALSE	FALSE	FALSE	0
p08	2015	06	16	12	33	f	21	l	30.2137544318	5	84	1.55020382884	1.36129874346	tactile	right	right	visual	NA	282.017853111	FALSE	FALSE	FALSE	FALSE	FALSE	0
p08	2015	06	16	12	33	f	21	l	30.2137544318	5	85	1.28768377495	1.46367812827	tactile	left	left	visual	NA	335.638788296	FALSE	FALSE	FALSE	FALSE	FALSE	0
p08	2015	06	16	12	33	f	21	l	30.2137544318	5	86	1.38871206692	0.758039064581	tactile	right	right	visual	NA	293.360762065	FALSE	FALSE	FALSE	FALSE	FALSE	0
p08	2015	06	16	12	33	f	21	l	30.2137544318	5	87	1.33882475505	0.863548535441	visual	left	right	visual	NA	146.402379265	FALSE	FALSE	FALSE	FALSE	FALSE	0
p08	2015	06	16	12	33	f	21	l	30.2137544318	5	88	1.04427861911	1.32862239046	tactile	right	left	visual	NA	143.514923053	FALSE	FALSE	FALSE	FALSE	FALSE	0
p08	2015	06	16	12	33	f	21	l	30.2137544318	5	89	1.20289225713	1.46572377939	visual	right	left	visual	NA	273.681874387	FALSE	FALSE	FALSE	FALSE	FALSE	0
p08	2015	06	16	12	33	f	21	l	30.2137544318	5	90	0.935486961156	1.35460064157	tactile	left	right	tactile	NA	117.061021971	FALSE	FALSE	FALSE	FALSE	FALSE	0
p08	2015	06	16	12	33	f	21	l	30.2137544318	5	91	1.08311668597	1.44464759593	tactile	right	right	tactile	NA	149.122430477	FALSE	FALSE	FALSE	FALSE	FALSE	0
p08	2015	06	16	12	33	f	21	l	30.2137544318	5	92	0.847414399963	0.951975418884	visual	left	right	tactile	NA	239.24260959	FALSE	FALSE	FALSE	FALSE	FALSE	0
p08	2015	06	16	12	33	f	21	l	30.2137544318	5	93	0.805484696059	1.09023662279	tactile	left	left	tactile	NA	110.955280717	FALSE	FALSE	FALSE	FALSE	FALSE	0
p08	2015	06	16	12	33	f	21	l	30.2137544318	5	94	0.700846755877	0.626701658383	tactile	right	left	tactile	NA	192.317260196	FALSE	FALSE	FALSE	FALSE	FALSE	0
p08	2015	06	16	12	33	f	21	l	30.2137544318	5	95	1.02860533819	1.32113648904	tactile	left	catch	visual	voice	NA	TRUE	FALSE	FALSE	FALSE	FALSE	0
p08	2015	06	16	12	33	f	21	l	30.2137544318	5	96	0.759604204912	0.84144688246	tactile	right	catch	visual	NA	NA	FALSE	FALSE	FALSE	FALSE	FALSE	0
p08	2015	06	16	12	33	f	21	l	30.2137544318	5	97	1.81921084388	0.738154585763	visual	left	left	visual	NA	299.003027845	FALSE	FALSE	FALSE	FALSE	FALSE	0
p08	2015	06	16	12	33	f	21	l	30.2137544318	5	98	0.724959052168	1.34416436929	visual	right	right	visual	NA	408.989980351	FALSE	FALSE	FALSE	FALSE	FALSE	0
p08	2015	06	16	12	33	f	21	l	30.2137544318	5	99	0.912333175074	0.788387281617	visual	right	left	tactile	NA	212.082314072	FALSE	FALSE	FALSE	FALSE	FALSE	0
p08	2015	06	16	12	33	f	21	l	30.2137544318	5	100	0.673548782943	0.884292756355	tactile	left	left	visual	NA	241.674108198	FALSE	FALSE	FALSE	FALSE	FALSE	0
p08	2015	06	16	12	33	f	21	l	30.2137544318	5	101	0.736377289053	0.709347623536	visual	left	catch	visual	NA	NA	FALSE	FALSE	FALSE	FALSE	FALSE	0
p08	2015	06	16	12	33	f	21	l	30.2137544318	5	102	1.17060037795	1.33103545298	visual	right	left	visual	NA	345.555140637	FALSE	FALSE	FALSE	FALSE	FALSE	0
p08	2015	06	16	12	33	f	21	l	30.2137544318	5	103	0.760143755004	1.25627646884	tactile	left	right	tactile	NA	240.631266963	FALSE	FALSE	FALSE	FALSE	FALSE	0
p08	2015	06	16	12	33	f	21	l	30.2137544318	5	104	1.17547083693	0.643716030918	tactile	left	left	tactile	NA	251.748714596	FALSE	FALSE	FALSE	FALSE	FALSE	0
p08	2015	06	16	12	33	f	21	l	30.2137544318	5	105	0.698940750211	1.27410934043	visual	left	right	tactile	NA	121.21256208	FALSE	FALSE	FALSE	FALSE	FALSE	0
p08	2015	06	16	12	33	f	21	l	30.2137544318	5	106	0.733384737046	0.926433379751	visual	right	left	visual	NA	190.554598812	FALSE	FALSE	FALSE	FALSE	FALSE	0
p08	2015	06	16	12	33	f	21	l	30.2137544318	5	107	0.650153212016	0.567878814551	tactile	left	right	visual	NA	230.294408044	FALSE	FALSE	FALSE	FALSE	TRUE	0
p08	2015	06	16	12	33	f	21	l	30.2137544318	5	108	0.837188469013	1.33070526396	tactile	left	left	visual	voice	NA	TRUE	FALSE	FALSE	FALSE	FALSE	0
p08	2015	06	16	12	33	f	21	l	30.2137544318	5	109	0.985996504081	1.34068979816	tactile	right	left	visual	NA	408.255812479	FALSE	FALSE	FALSE	FALSE	FALSE	0
p08	2015	06	16	12	33	f	21	l	30.2137544318	5	110	0.896893847035	0.834038515431	tactile	left	right	tactile	NA	227.291377261	FALSE	FALSE	FALSE	FALSE	FALSE	0
p08	2015	06	16	12	33	f	21	l	30.2137544318	5	111	1.13956911303	1.4518507685	visual	right	left	visual	NA	323.367168196	FALSE	FALSE	FALSE	FALSE	FALSE	0
p08	2015	06	16	12	33	f	21	l	30.2137544318	5	112	0.751174191013	0.913466314522	tactile	left	left	tactile	NA	68.4774240945	FALSE	FALSE	FALSE	FALSE	FALSE	0
p08	2015	06	16	12	33	f	21	l	30.2137544318	5	113	0.764649794903	0.865323717588	visual	right	catch	visual	NA	177.905393997	FALSE	FALSE	FALSE	FALSE	FALSE	0
p08	2015	06	16	12	33	f	21	l	30.2137544318	5	114	0.82188881305	1.24008951562	visual	left	left	visual	NA	200.729818083	FALSE	FALSE	FALSE	FALSE	FALSE	0
p08	2015	06	16	12	33	f	21	l	30.2137544318	5	115	0.699871037854	0.928652058339	tactile	left	catch	tactile	NA	NA	FALSE	FALSE	FALSE	FALSE	FALSE	0
p08	2015	06	16	12	33	f	21	l	30.2137544318	5	116	1.01435578312	1.38979388259	visual	right	right	tactile	NA	288.035714999	FALSE	FALSE	FALSE	FALSE	TRUE	0
p08	2015	06	16	12	33	f	21	l	30.2137544318	5	117	0.774800548097	0.598963246351	visual	left	left	tactile	NA	250.473373104	FALSE	FALSE	FALSE	FALSE	FALSE	0
p08	2015	06	16	12	33	f	21	l	30.2137544318	5	118	1.55769696506	0.651655707131	visual	left	left	tactile	NA	33.2439015619	FALSE	FALSE	FALSE	FALSE	FALSE	0
p08	2015	06	16	12	33	f	21	l	30.2137544318	5	119	0.812186907046	1.46979548582	tactile	left	right	tactile	NA	145.630689804	FALSE	FALSE	FALSE	FALSE	FALSE	0
p08	2015	06	16	12	33	f	21	l	30.2137544318	5	120	0.759406046011	1.33328128511	tactile	left	right	tactile	NA	235.63936865	FALSE	FALSE	FALSE	FALSE	FALSE	0
p08	2015	06	16	12	33	f	21	l	37.5392134311	5	121	4.06170156808	1.11538594149	visual	right	right	visual	NA	290.774993133	FALSE	FALSE	FALSE	FALSE	FALSE	0
p08	2015	06	16	12	33	f	21	l	37.5392134311	5	122	0.961564332945	1.2867949903	tactile	left	left	tactile	NA	50.4003113601	FALSE	FALSE	FALSE	FALSE	FALSE	0
p08	2015	06	16	12	33	f	21	l	37.5392134311	5	123	0.861602834892	0.702180882694	visual	left	right	tactile	NA	132.391548017	FALSE	FALSE	FALSE	FALSE	FALSE	0
p08	2015	06	16	12	33	f	21	l	37.5392134311	5	124	0.752206264995	0.787695838367	visual	right	right	visual	NA	56.4139261842	FALSE	FALSE	FALSE	FALSE	FALSE	0
p08	2015	06	16	12	33	f	21	l	37.5392134311	5	125	0.789804702858	1.19087493297	visual	left	right	tactile	NA	54.3511777651	FALSE	FALSE	FALSE	FALSE	FALSE	0
p08	2015	06	16	12	33	f	21	l	37.5392134311	5	126	0.800629070029	0.636298036695	tactile	right	left	visual	NA	45.6838079263	FALSE	FALSE	FALSE	FALSE	FALSE	0
p08	2015	06	16	12	33	f	21	l	37.5392134311	5	127	0.723839353072	1.41787511209	tactile	right	right	tactile	NA	97.5307687186	FALSE	FALSE	FALSE	FALSE	TRUE	0
p08	2015	06	16	12	33	f	21	l	37.5392134311	5	128	0.716889336938	0.868779994094	tactile	left	left	tactile	voice	NA	TRUE	FALSE	FALSE	FALSE	FALSE	0
p08	2015	06	16	12	33	f	21	l	37.5392134311	5	129	0.869366856059	1.03869340987	visual	right	left	tactile	NA	268.662480637	FALSE	FALSE	FALSE	FALSE	FALSE	0
