id	year	month	day	hour	minute	sex	age	handedness	message_viewing_time	block	trial_num	trial_initiation_time	fixation_duration	cue_location	cue_modality	target_location	target_modality	target_type	target_response_key	target_response_rt	pre_target_response	feedback_response	recalibration	blink	saccade	biggest_small_saccade	critical_blink	critical_saccade	target_started_TF
p06	2015	07	14	16	13	m	21	l	208.439005598	practice	1	5.25734192296	0.734147108693	left	visual	left	tactile	target	NA	NA	FALSE	FALSE	FALSE	FALSE	FALSE	0	FALSE	FALSE	TRUE
p06	2015	07	14	16	13	m	21	l	208.439005598	practice	2	0.560976643988	0.740232076153	right	visual	right	tactile	target	voice	NA	TRUE	FALSE	FALSE	FALSE	FALSE	0	FALSE	FALSE	FALSE
p06	2015	07	14	16	13	m	21	l	208.439005598	practice	3	0.972393460979	1.45694071596	right	tactile	left	visual	target	voice	NA	TRUE	FALSE	FALSE	FALSE	FALSE	0	FALSE	FALSE	FALSE
p06	2015	07	14	16	13	m	21	l	208.439005598	practice	4	4.29513482098	0.535223361725	left	visual	right	visual	target	voice	466.707144922	FALSE	FALSE	FALSE	FALSE	FALSE	0	FALSE	FALSE	TRUE
p06	2015	07	14	16	13	m	21	l	208.439005598	practice	5	4.464905172	0.97816562791	left	visual	right	tactile	target	voice	296.338447777	FALSE	FALSE	FALSE	FALSE	FALSE	0	FALSE	FALSE	TRUE
p06	2015	07	14	16	13	m	21	l	208.439005598	practice	6	1.41565619601	1.17952319795	left	visual	left	visual	target	voice	646.171825705	FALSE	FALSE	FALSE	FALSE	FALSE	0	FALSE	FALSE	TRUE
p06	2015	07	14	16	13	m	21	l	208.439005598	practice	7	0.955804427969	0.825269171996	right	tactile	left	tactile	target	voice	471.381662705	FALSE	FALSE	FALSE	FALSE	FALSE	0	FALSE	FALSE	TRUE
p06	2015	07	14	16	13	m	21	l	208.439005598	practice	8	0.693212914979	1.22528581289	left	tactile	right	tactile	target	voice	525.655652804	FALSE	FALSE	FALSE	FALSE	FALSE	0	FALSE	FALSE	TRUE
p06	2015	07	14	16	13	m	21	l	208.439005598	practice	9	0.624548455002	1.37094442511	right	visual	left	tactile	target	voice	390.31055657	FALSE	FALSE	FALSE	FALSE	FALSE	0	FALSE	FALSE	TRUE
p06	2015	07	14	16	13	m	21	l	208.439005598	practice	10	0.425246277999	1.09115773876	right	tactile	left	visual	target	voice	469.364847871	FALSE	FALSE	FALSE	FALSE	TRUE	0	FALSE	FALSE	TRUE
p06	2015	07	14	16	13	m	21	l	208.439005598	practice	11	1.06568517396	1.07943249152	right	tactile	right	visual	target	voice	551.20987515	FALSE	FALSE	FALSE	FALSE	FALSE	0	FALSE	FALSE	TRUE
p06	2015	07	14	16	13	m	21	l	208.439005598	practice	12	0.479547669005	0.868014601629	left	visual	right	visual	target	voice	394.991649024	FALSE	FALSE	FALSE	FALSE	TRUE	0	FALSE	FALSE	TRUE
p06	2015	07	14	16	13	m	21	l	208.439005598	practice	13	0.571208974987	0.526616784641	right	visual	left	visual	target	voice	813.124483044	FALSE	FALSE	FALSE	FALSE	FALSE	0	FALSE	FALSE	TRUE
p06	2015	07	14	16	13	m	21	l	208.439005598	practice	14	0.408923409996	0.822654756921	right	tactile	left	tactile	target	voice	503.089117701	FALSE	FALSE	FALSE	FALSE	FALSE	0	FALSE	FALSE	TRUE
p06	2015	07	14	16	13	m	21	l	208.439005598	practice	15	0.459624391049	1.12983782097	left	visual	right	tactile	catch	NA	NA	FALSE	FALSE	FALSE	FALSE	FALSE	0	FALSE	FALSE	TRUE
p06	2015	07	14	16	13	m	21	l	208.439005598	practice	16	1.23161352001	1.12938296439	left	visual	right	visual	target	voice	573.081547278	FALSE	FALSE	FALSE	FALSE	FALSE	0	FALSE	FALSE	TRUE
p06	2015	07	14	16	13	m	21	l	208.439005598	practice	17	0.715958866989	1.2893113127	right	tactile	right	visual	target	voice	447.108656983	FALSE	FALSE	FALSE	FALSE	FALSE	0	FALSE	FALSE	TRUE
p06	2015	07	14	16	13	m	21	l	208.439005598	practice	18	0.536746065016	0.992308131315	right	tactile	right	tactile	target	voice	489.101506362	FALSE	FALSE	FALSE	FALSE	TRUE	0	FALSE	FALSE	TRUE
p06	2015	07	14	16	13	m	21	l	208.439005598	practice	19	0.408099147025	0.523150717662	left	visual	right	tactile	target	voice	486.559297016	FALSE	FALSE	FALSE	FALSE	FALSE	0	FALSE	FALSE	TRUE
p06	2015	07	14	16	13	m	21	l	208.439005598	practice	20	0.410940089962	0.818559908236	left	tactile	left	tactile	target	NA	NA	FALSE	FALSE	FALSE	FALSE	TRUE	0	FALSE	FALSE	TRUE
p06	2015	07	14	16	13	m	21	l	208.439005598	practice	21	3.00028534001	0.772149307539	right	tactile	right	tactile	target	voice	484.641449118	FALSE	FALSE	FALSE	FALSE	TRUE	0	FALSE	FALSE	TRUE
p06	2015	07	14	16	13	m	21	l	208.439005598	practice	22	0.406084411021	1.20349946708	left	visual	left	visual	target	voice	528.306302615	FALSE	FALSE	FALSE	FALSE	FALSE	0	FALSE	FALSE	TRUE
p06	2015	07	14	16	13	m	21	l	208.439005598	practice	23	0.404532083019	0.671915548743	left	tactile	left	tactile	target	NA	NA	FALSE	FALSE	FALSE	FALSE	TRUE	0	FALSE	FALSE	TRUE
p06	2015	07	14	16	13	m	21	l	208.439005598	practice	24	1.02743960998	1.42432720903	left	tactile	right	visual	catch	NA	NA	FALSE	FALSE	FALSE	FALSE	FALSE	0	FALSE	FALSE	TRUE
p06	2015	07	14	16	13	m	21	l	208.439005598	practice	25	0.800069565012	1.05972265655	right	tactile	right	tactile	catch	NA	NA	FALSE	FALSE	FALSE	FALSE	FALSE	0	FALSE	FALSE	TRUE
p06	2015	07	14	16	13	m	21	l	208.439005598	practice	26	0.768104621966	1.0701354037	left	visual	right	visual	target	voice	463.697095984	FALSE	FALSE	FALSE	FALSE	FALSE	0	FALSE	FALSE	TRUE
p06	2015	07	14	16	13	m	21	l	208.439005598	practice	27	0.429955761996	1.25689506175	left	tactile	right	visual	target	voice	351.143018925	FALSE	FALSE	FALSE	FALSE	FALSE	0	FALSE	FALSE	TRUE
p06	2015	07	14	16	13	m	21	l	208.439005598	practice	28	0.407692051958	1.44907991694	right	visual	left	visual	target	voice	474.475545692	FALSE	FALSE	FALSE	FALSE	TRUE	0	FALSE	FALSE	TRUE
p06	2015	07	14	16	13	m	21	l	208.439005598	practice	29	0.410580706026	0.862400757843	right	tactile	left	tactile	target	voice	474.152182811	FALSE	FALSE	FALSE	FALSE	TRUE	0	FALSE	FALSE	TRUE
p06	2015	07	14	16	13	m	21	l	208.439005598	practice	30	0.404869352002	1.36356406946	left	visual	right	tactile	target	voice	485.658962221	FALSE	FALSE	FALSE	FALSE	TRUE	0	FALSE	FALSE	TRUE
p06	2015	07	14	16	13	m	21	l	208.439005598	practice	31	0.429960899986	0.523931977536	left	tactile	left	visual	target	voice	492.351031164	FALSE	FALSE	FALSE	FALSE	TRUE	0	FALSE	FALSE	TRUE
p06	2015	07	14	16	13	m	21	l	208.439005598	practice	32	0.404555785004	1.37074859367	right	visual	left	visual	target	voice	NA	TRUE	FALSE	FALSE	FALSE	FALSE	0	FALSE	FALSE	FALSE
p06	2015	07	14	16	13	m	21	l	208.439005598	practice	33	0.95518821798	0.61605545983	right	tactile	right	visual	target	voice	425.080090878	FALSE	FALSE	FALSE	FALSE	FALSE	0	FALSE	FALSE	TRUE
p06	2015	07	14	16	13	m	21	l	208.439005598	practice	34	0.413569006021	1.37915142654	right	visual	right	tactile	target	voice	466.737273091	FALSE	FALSE	FALSE	FALSE	FALSE	0	FALSE	FALSE	TRUE
p06	2015	07	14	16	13	m	21	l	208.439005598	practice	35	0.415436775016	1.03913863829	left	tactile	right	tactile	catch	NA	NA	FALSE	FALSE	FALSE	FALSE	TRUE	0	FALSE	FALSE	TRUE
p06	2015	07	14	16	13	m	21	l	208.439005598	practice	36	0.73960070801	0.53925642078	right	visual	right	visual	target	voice	540.17457983	FALSE	FALSE	FALSE	FALSE	FALSE	0	FALSE	FALSE	TRUE
p06	2015	07	14	16	13	m	21	l	208.439005598	practice	37	0.497501454956	1.24948749929	right	tactile	right	visual	target	voice	563.715967408	FALSE	FALSE	FALSE	FALSE	FALSE	0	FALSE	FALSE	TRUE
p06	2015	07	14	16	13	m	21	l	208.439005598	practice	38	1.91028960701	1.43449077689	right	visual	right	visual	target	voice	565.794716764	FALSE	FALSE	FALSE	FALSE	FALSE	0	FALSE	FALSE	TRUE
p06	2015	07	14	16	13	m	21	l	208.439005598	practice	39	0.409158094029	0.871188718169	left	tactile	right	visual	target	voice	505.583382503	FALSE	FALSE	FALSE	FALSE	FALSE	0	FALSE	FALSE	TRUE
p06	2015	07	14	16	13	m	21	l	208.439005598	practice	40	0.499831344001	1.06665849084	right	tactile	right	visual	target	voice	391.491916787	FALSE	FALSE	FALSE	FALSE	FALSE	0	FALSE	FALSE	TRUE
p06	2015	07	14	16	13	m	21	l	103.72219679	1	1	2.27876735199	1.44226428013	left	visual	left	tactile	catch	NA	NA	FALSE	FALSE	FALSE	FALSE	FALSE	0	FALSE	FALSE	TRUE
p06	2015	07	14	16	13	m	21	l	103.72219679	1	2	85.2354319801	1.17340034142	left	visual	left	tactile	target	NA	NA	FALSE	FALSE	FALSE	FALSE	FALSE	0	FALSE	FALSE	TRUE
p06	2015	07	14	16	13	m	21	l	103.72219679	1	3	400.942343654	0.623375279489	right	tactile	right	visual	catch	NA	NA	FALSE	FALSE	FALSE	FALSE	FALSE	0	FALSE	FALSE	TRUE
p06	2015	07	14	16	13	m	21	l	103.72219679	1	4	0.885136023979	0.54170896412	right	visual	left	tactile	target	voice	446.696215542	FALSE	FALSE	FALSE	FALSE	FALSE	0	FALSE	FALSE	TRUE
p06	2015	07	14	16	13	m	21	l	103.72219679	1	5	0.53762545198	0.73719761561	left	tactile	left	visual	catch	NA	NA	FALSE	FALSE	FALSE	FALSE	FALSE	0	FALSE	FALSE	TRUE
p06	2015	07	14	16	13	m	21	l	103.72219679	1	6	0.697939062025	0.59634052983	right	visual	left	tactile	target	voice	467.550724803	FALSE	FALSE	FALSE	FALSE	FALSE	0	FALSE	FALSE	TRUE
p06	2015	07	14	16	13	m	21	l	103.72219679	1	7	11.878062748	0.699540817631	right	tactile	left	tactile	target	voice	523.551095976	FALSE	FALSE	FALSE	FALSE	FALSE	0	FALSE	FALSE	TRUE
p06	2015	07	14	16	13	m	21	l	103.72219679	1	8	0.538827628014	1.34589671082	left	visual	right	visual	target	voice	283.499392855	FALSE	FALSE	FALSE	FALSE	FALSE	0	FALSE	FALSE	TRUE
p06	2015	07	14	16	13	m	21	l	103.72219679	1	9	2.39909912902	0.591052934538	left	tactile	left	visual	target	voice	308.782583103	FALSE	FALSE	FALSE	FALSE	TRUE	0	FALSE	TRUE	TRUE
p06	2015	07	14	16	13	m	21	l	103.72219679	1	10	0.700441849011	0.993107094263	left	tactile	left	visual	target	voice	391.985236434	FALSE	FALSE	FALSE	FALSE	FALSE	0	FALSE	FALSE	TRUE
p06	2015	07	14	16	13	m	21	l	103.72219679	1	11	3.582041813	1.02081782191	left	visual	right	visual	target	voice	347.83725976	FALSE	FALSE	FALSE	FALSE	FALSE	0	FALSE	FALSE	TRUE
p06	2015	07	14	16	13	m	21	l	103.72219679	1	12	0.680292800011	0.580751020216	left	visual	right	tactile	target	voice	325.867146428	FALSE	FALSE	FALSE	FALSE	FALSE	0	FALSE	FALSE	TRUE
p06	2015	07	14	16	13	m	21	l	103.72219679	1	13	2.01974153303	0.672220538008	right	tactile	left	tactile	target	voice	357.716087659	FALSE	FALSE	FALSE	FALSE	TRUE	0	FALSE	FALSE	TRUE
p06	2015	07	14	16	13	m	21	l	103.72219679	1	14	4.83439670602	0.582647456643	right	tactile	right	tactile	target	voice	477.006325964	FALSE	FALSE	FALSE	FALSE	FALSE	0	FALSE	FALSE	TRUE
p06	2015	07	14	16	13	m	21	l	103.72219679	1	15	4.57199774799	1.43685910726	left	tactile	right	tactile	target	voice	NA	TRUE	FALSE	FALSE	FALSE	FALSE	0	FALSE	FALSE	FALSE
p06	2015	07	14	16	13	m	21	l	103.72219679	1	16	2.06292736996	0.914078377564	left	visual	right	visual	target	voice	NA	TRUE	FALSE	FALSE	FALSE	FALSE	0	FALSE	FALSE	FALSE
p06	2015	07	14	16	13	m	21	l	103.72219679	1	17	0.548647384974	1.13518262461	left	visual	left	visual	target	voice	NA	TRUE	TRUE	FALSE	FALSE	FALSE	0	FALSE	FALSE	FALSE
p06	2015	07	14	16	13	m	21	l	103.72219679	1	18	75.056979366	1.36967346002	right	visual	left	tactile	target	voice	NA	TRUE	FALSE	FALSE	FALSE	FALSE	0	FALSE	FALSE	FALSE
p06	2015	07	14	16	13	m	21	l	103.72219679	1	19	3.16288387001	1.25754091908	right	visual	right	tactile	target	voice	444.387001626	FALSE	FALSE	FALSE	FALSE	FALSE	0	FALSE	FALSE	TRUE
p06	2015	07	14	16	13	m	21	l	103.72219679	1	20	1.27993153001	1.05841092083	left	tactile	right	visual	target	voice	361.767697847	FALSE	FALSE	FALSE	FALSE	TRUE	0	FALSE	FALSE	TRUE
p06	2015	07	14	16	13	m	21	l	103.72219679	1	21	0.615966759971	0.764735894672	right	tactile	left	visual	catch	NA	NA	FALSE	FALSE	FALSE	FALSE	FALSE	0	FALSE	FALSE	TRUE
p06	2015	07	14	16	13	m	21	l	103.72219679	1	22	1.11669181695	1.27727292054	right	visual	left	visual	catch	NA	NA	FALSE	FALSE	FALSE	FALSE	FALSE	0	FALSE	FALSE	TRUE
p06	2015	07	14	16	13	m	21	l	103.72219679	1	23	0.899756185012	0.84754410175	left	tactile	right	tactile	target	voice	422.732018924	FALSE	FALSE	FALSE	FALSE	FALSE	0	FALSE	FALSE	TRUE
p06	2015	07	14	16	13	m	21	l	103.72219679	1	24	0.529527817969	0.741066021469	right	visual	left	visual	target	voice	435.844931169	FALSE	FALSE	FALSE	FALSE	FALSE	0	FALSE	FALSE	TRUE
p06	2015	07	14	16	13	m	21	l	103.72219679	1	25	0.402437918994	0.727525220395	right	tactile	right	visual	target	voice	295.585059328	FALSE	FALSE	FALSE	FALSE	FALSE	0	FALSE	FALSE	TRUE
p06	2015	07	14	16	13	m	21	l	103.72219679	1	26	0.406199157995	0.67686758107	right	visual	right	visual	target	voice	347.75754757	FALSE	FALSE	FALSE	FALSE	FALSE	0	FALSE	FALSE	TRUE
p06	2015	07	14	16	13	m	21	l	103.72219679	1	27	1.60895698	0.622277111503	right	visual	right	tactile	target	voice	351.457353157	FALSE	FALSE	FALSE	FALSE	TRUE	0	FALSE	FALSE	TRUE
p06	2015	07	14	16	13	m	21	l	103.72219679	1	28	2.07013547601	0.627724523907	right	visual	left	tactile	target	voice	328.203004785	FALSE	FALSE	FALSE	FALSE	FALSE	0	FALSE	FALSE	TRUE
p06	2015	07	14	16	13	m	21	l	103.72219679	1	29	1.09345114499	1.42926299392	right	visual	right	tactile	target	voice	NA	TRUE	FALSE	FALSE	FALSE	FALSE	0	FALSE	FALSE	FALSE
p06	2015	07	14	16	13	m	21	l	103.72219679	1	30	1.53699098498	0.829933582619	right	visual	right	tactile	target	voice	417.828413018	FALSE	FALSE	FALSE	FALSE	FALSE	0	FALSE	FALSE	TRUE
p06	2015	07	14	16	13	m	21	l	103.72219679	1	31	0.94958433602	0.775698206699	left	tactile	left	visual	target	voice	351.414199977	FALSE	FALSE	FALSE	FALSE	FALSE	0	FALSE	FALSE	TRUE
p06	2015	07	14	16	13	m	21	l	103.72219679	1	32	0.809201516968	0.87458270289	left	visual	right	tactile	target	voice	390.683300793	FALSE	FALSE	FALSE	FALSE	FALSE	0	FALSE	FALSE	TRUE
p06	2015	07	14	16	13	m	21	l	103.72219679	1	33	0.466815939988	1.17480780817	left	tactile	left	visual	target	voice	386.077154486	FALSE	FALSE	FALSE	FALSE	FALSE	0	FALSE	FALSE	TRUE
p06	2015	07	14	16	13	m	21	l	103.72219679	1	34	0.425359089044	1.15968169697	left	tactile	left	visual	target	voice	370.137950697	FALSE	FALSE	FALSE	FALSE	FALSE	0	FALSE	FALSE	TRUE
p06	2015	07	14	16	13	m	21	l	103.72219679	1	35	1.34393688099	1.05473143799	right	tactile	left	visual	target	voice	398.359934683	FALSE	FALSE	FALSE	FALSE	FALSE	0	FALSE	FALSE	TRUE
p06	2015	07	14	16	13	m	21	l	103.72219679	1	36	0.475398926996	1.21168485001	right	visual	right	tactile	target	voice	405.906237662	FALSE	FALSE	FALSE	FALSE	FALSE	0	FALSE	FALSE	TRUE
p06	2015	07	14	16	13	m	21	l	103.72219679	1	37	0.409759424976	1.31837409732	left	tactile	right	tactile	target	voice	411.951079324	FALSE	FALSE	FALSE	FALSE	FALSE	0	FALSE	FALSE	TRUE
p06	2015	07	14	16	13	m	21	l	103.72219679	1	38	0.505756318977	0.603309048424	right	visual	left	tactile	target	voice	454.631967295	FALSE	FALSE	FALSE	FALSE	FALSE	0	FALSE	FALSE	TRUE
p06	2015	07	14	16	13	m	21	l	103.72219679	1	39	0.472419703961	0.713324380133	left	visual	left	tactile	target	voice	473.618673568	FALSE	FALSE	FALSE	FALSE	FALSE	0	FALSE	FALSE	TRUE
p06	2015	07	14	16	13	m	21	l	103.72219679	1	40	0.405527341005	0.807112423425	left	visual	right	visual	target	voice	396.699967212	FALSE	FALSE	FALSE	FALSE	FALSE	0	FALSE	FALSE	TRUE
p06	2015	07	14	16	13	m	21	l	7.21525244298	1	41	0.851622030023	1.15858776954	left	visual	left	tactile	target	voice	388.491483114	FALSE	FALSE	FALSE	FALSE	FALSE	0	FALSE	FALSE	TRUE
p06	2015	07	14	16	13	m	21	l	7.21525244298	1	42	0.542246341007	1.31293949319	left	tactile	right	tactile	target	voice	462.034150492	FALSE	FALSE	FALSE	FALSE	FALSE	0	FALSE	FALSE	TRUE
p06	2015	07	14	16	13	m	21	l	7.21525244298	1	43	0.583604181011	0.81845371997	left	visual	left	visual	target	voice	363.531579729	FALSE	FALSE	FALSE	FALSE	FALSE	0	FALSE	FALSE	TRUE
p06	2015	07	14	16	13	m	21	l	7.21525244298	1	44	0.562594348972	0.689065376018	right	tactile	left	visual	target	voice	409.10325764	FALSE	FALSE	FALSE	FALSE	FALSE	0	FALSE	FALSE	TRUE
p06	2015	07	14	16	13	m	21	l	7.21525244298	1	45	0.416535686993	1.12539924334	right	tactile	right	tactile	target	voice	483.84662834	FALSE	FALSE	FALSE	FALSE	FALSE	0	FALSE	FALSE	TRUE
p06	2015	07	14	16	13	m	21	l	7.21525244298	1	46	0.492329991015	1.04417649049	left	tactile	left	visual	target	voice	362.5741672	FALSE	FALSE	FALSE	FALSE	FALSE	0	FALSE	FALSE	TRUE
p06	2015	07	14	16	13	m	21	l	7.21525244298	1	47	0.482975949009	0.799051961614	right	visual	left	tactile	target	voice	435.711154016	FALSE	FALSE	FALSE	FALSE	FALSE	0	FALSE	FALSE	TRUE
p06	2015	07	14	16	13	m	21	l	7.21525244298	1	48	0.50370402704	1.12921411695	left	tactile	right	visual	target	voice	289.34053774	FALSE	FALSE	FALSE	FALSE	FALSE	0	FALSE	FALSE	TRUE
p06	2015	07	14	16	13	m	21	l	7.21525244298	1	49	0.488253830001	0.959331911667	right	visual	right	visual	target	voice	323.719277047	FALSE	FALSE	FALSE	FALSE	FALSE	0	FALSE	FALSE	TRUE
p06	2015	07	14	16	13	m	21	l	7.21525244298	1	50	1.80895923398	1.3454987309	right	tactile	left	tactile	catch	NA	NA	FALSE	FALSE	FALSE	FALSE	FALSE	0	FALSE	FALSE	TRUE
p06	2015	07	14	16	13	m	21	l	7.21525244298	1	51	0.876962571987	1.42744465041	left	visual	right	tactile	target	voice	327.697678294	FALSE	FALSE	FALSE	FALSE	FALSE	0	FALSE	FALSE	TRUE
p06	2015	07	14	16	13	m	21	l	7.21525244298	1	52	2.466904225	0.548114332163	left	tactile	right	tactile	target	voice	348.932007561	FALSE	FALSE	FALSE	FALSE	TRUE	0	FALSE	FALSE	TRUE
p06	2015	07	14	16	13	m	21	l	7.21525244298	1	53	7.881082949	0.872385364624	left	visual	left	tactile	target	voice	386.933667061	FALSE	FALSE	FALSE	FALSE	TRUE	0	FALSE	TRUE	TRUE
p06	2015	07	14	16	13	m	21	l	7.21525244298	1	54	0.933996726002	1.16714283366	left	tactile	left	tactile	catch	NA	NA	FALSE	FALSE	FALSE	FALSE	TRUE	0	FALSE	FALSE	TRUE
p06	2015	07	14	16	13	m	21	l	7.21525244298	1	55	0.803774402011	0.512143059878	right	visual	right	visual	target	voice	473.393029824	FALSE	FALSE	FALSE	FALSE	FALSE	0	FALSE	FALSE	TRUE
p06	2015	07	14	16	13	m	21	l	7.21525244298	1	56	0.76561593404	1.23915312896	left	visual	left	visual	target	voice	435.730622732	FALSE	FALSE	FALSE	FALSE	FALSE	0	FALSE	FALSE	TRUE
p06	2015	07	14	16	13	m	21	l	7.21525244298	1	57	0.442309169972	0.698641808942	left	tactile	right	tactile	target	voice	440.095516737	FALSE	FALSE	FALSE	FALSE	FALSE	0	FALSE	FALSE	TRUE
p06	2015	07	14	16	13	m	21	l	7.21525244298	1	58	0.50268241897	1.05372039883	left	tactile	left	tactile	target	voice	487.701458856	FALSE	FALSE	FALSE	FALSE	FALSE	0	FALSE	FALSE	TRUE
p06	2015	07	14	16	13	m	21	l	7.21525244298	1	59	0.414882512996	0.921864754785	right	tactile	left	tactile	target	voice	NA	TRUE	FALSE	FALSE	FALSE	FALSE	0	FALSE	FALSE	FALSE
p06	2015	07	14	16	13	m	21	l	7.21525244298	1	60	1.10772542498	0.552655581386	right	visual	right	tactile	target	NA	NA	FALSE	FALSE	FALSE	FALSE	FALSE	0	FALSE	FALSE	TRUE
p06	2015	07	14	16	13	m	21	l	7.21525244298	1	61	0.916032612033	0.973809284119	left	visual	left	tactile	target	voice	431.051756605	FALSE	FALSE	FALSE	FALSE	TRUE	0	FALSE	FALSE	TRUE
p06	2015	07	14	16	13	m	21	l	7.21525244298	1	62	0.482895992987	0.58519176519	right	visual	left	visual	target	voice	392.907174421	FALSE	FALSE	FALSE	FALSE	FALSE	0	FALSE	FALSE	TRUE
p06	2015	07	14	16	13	m	21	l	7.21525244298	1	63	0.415051634016	0.72849832979	right	tactile	right	visual	target	voice	455.651702883	FALSE	FALSE	FALSE	FALSE	FALSE	0	FALSE	FALSE	TRUE
p06	2015	07	14	16	13	m	21	l	7.21525244298	1	64	0.407572503027	1.16655269231	right	tactile	right	tactile	target	voice	453.529730381	FALSE	FALSE	FALSE	FALSE	FALSE	0	FALSE	FALSE	TRUE
p06	2015	07	14	16	13	m	21	l	7.21525244298	1	65	0.409767206002	0.848520387617	right	visual	left	visual	target	voice	342.612784065	FALSE	FALSE	FALSE	FALSE	FALSE	0	FALSE	FALSE	TRUE
p06	2015	07	14	16	13	m	21	l	7.21525244298	1	66	0.448891239008	0.994644344497	right	visual	left	tactile	target	voice	425.483479165	FALSE	FALSE	FALSE	FALSE	FALSE	0	FALSE	FALSE	TRUE
p06	2015	07	14	16	13	m	21	l	7.21525244298	1	67	0.392189117032	1.20752729514	right	tactile	right	tactile	target	voice	448.955733504	FALSE	FALSE	FALSE	FALSE	FALSE	0	FALSE	FALSE	TRUE
p06	2015	07	14	16	13	m	21	l	7.21525244298	1	68	0.520631942025	1.17384392308	left	tactile	right	visual	target	voice	443.993278604	FALSE	FALSE	FALSE	FALSE	FALSE	0	FALSE	FALSE	TRUE
p06	2015	07	14	16	13	m	21	l	7.21525244298	1	69	0.496560828004	0.546707143999	left	tactile	right	visual	target	voice	386.159787653	FALSE	FALSE	FALSE	FALSE	FALSE	0	FALSE	FALSE	TRUE
p06	2015	07	14	16	13	m	21	l	7.21525244298	1	70	3.36611949402	1.41540599126	right	tactile	right	tactile	target	voice	535.608019389	FALSE	FALSE	FALSE	FALSE	TRUE	0	FALSE	FALSE	TRUE
p06	2015	07	14	16	13	m	21	l	7.21525244298	1	71	0.491679273022	1.48281887176	left	visual	right	visual	target	voice	445.873348974	FALSE	FALSE	FALSE	FALSE	TRUE	0	FALSE	FALSE	TRUE
p06	2015	07	14	16	13	m	21	l	7.21525244298	1	72	0.41117758397	0.819476201154	left	visual	left	tactile	target	voice	494.872797513	FALSE	FALSE	FALSE	FALSE	FALSE	0	FALSE	FALSE	TRUE
p06	2015	07	14	16	13	m	21	l	7.21525244298	1	73	0.541962724004	0.841243010988	left	tactile	left	tactile	target	voice	580.900083703	FALSE	FALSE	FALSE	FALSE	TRUE	0	FALSE	TRUE	TRUE
p06	2015	07	14	16	13	m	21	l	7.21525244298	1	74	0.619887483015	0.873751023454	left	visual	right	tactile	target	voice	431.214538228	FALSE	FALSE	FALSE	FALSE	FALSE	0	FALSE	FALSE	TRUE
p06	2015	07	14	16	13	m	21	l	7.21525244298	1	75	0.555692459049	1.15006227316	left	visual	left	tactile	target	voice	413.843929535	FALSE	FALSE	FALSE	FALSE	FALSE	0	FALSE	FALSE	TRUE
p06	2015	07	14	16	13	m	21	l	7.21525244298	1	76	0.464388872962	0.928513945137	left	tactile	left	tactile	target	voice	411.519966554	FALSE	FALSE	FALSE	FALSE	TRUE	0	FALSE	FALSE	TRUE
p06	2015	07	14	16	13	m	21	l	7.21525244298	1	77	0.513034544943	1.21490801536	right	tactile	left	visual	target	voice	506.248109275	FALSE	FALSE	FALSE	FALSE	FALSE	0	FALSE	FALSE	TRUE
p06	2015	07	14	16	13	m	21	l	7.21525244298	1	78	0.509464780975	0.588756613251	right	tactile	left	tactile	target	voice	311.754764407	FALSE	FALSE	FALSE	FALSE	FALSE	0	FALSE	FALSE	TRUE
p06	2015	07	14	16	13	m	21	l	7.21525244298	1	79	0.558567614004	1.0395912192	right	tactile	right	visual	target	voice	413.65844442	FALSE	FALSE	FALSE	FALSE	FALSE	0	FALSE	FALSE	TRUE
p06	2015	07	14	16	13	m	21	l	7.21525244298	1	80	0.419863299991	0.952268400495	right	tactile	left	tactile	target	voice	367.733020103	FALSE	FALSE	FALSE	FALSE	FALSE	0	FALSE	FALSE	TRUE
p06	2015	07	14	16	13	m	21	l	8.34451265604	1	81	1.358429835	0.533813324174	left	visual	right	tactile	target	voice	460.479924513	FALSE	FALSE	FALSE	FALSE	FALSE	0	FALSE	FALSE	TRUE
p06	2015	07	14	16	13	m	21	l	8.34451265604	1	82	0.398632800032	1.01583326305	right	tactile	left	tactile	target	voice	NA	TRUE	FALSE	FALSE	FALSE	FALSE	0	FALSE	FALSE	FALSE
p06	2015	07	14	16	13	m	21	l	8.34451265604	1	83	1.04888163699	1.0984226278	right	visual	right	visual	target	voice	439.975482877	FALSE	FALSE	FALSE	FALSE	FALSE	0	FALSE	FALSE	TRUE
p06	2015	07	14	16	13	m	21	l	8.34451265604	1	84	0.549974212016	1.37784891953	left	visual	left	visual	target	voice	428.099205135	FALSE	FALSE	FALSE	FALSE	FALSE	0	FALSE	FALSE	TRUE
p06	2015	07	14	16	13	m	21	l	8.34451265604	1	85	0.552190901013	1.49565985979	left	visual	right	tactile	target	voice	391.042269883	FALSE	FALSE	FALSE	FALSE	FALSE	0	FALSE	FALSE	TRUE
p06	2015	07	14	16	13	m	21	l	8.34451265604	1	86	0.585706149985	1.13476056061	right	tactile	right	visual	target	voice	403.61424908	FALSE	FALSE	FALSE	FALSE	FALSE	0	FALSE	FALSE	TRUE
p06	2015	07	14	16	13	m	21	l	8.34451265604	1	87	0.644378227007	0.709318006772	right	visual	right	visual	target	voice	413.082179904	FALSE	FALSE	FALSE	FALSE	FALSE	0	FALSE	FALSE	TRUE
p06	2015	07	14	16	13	m	21	l	8.34451265604	1	88	0.543216316961	0.754074872243	left	visual	right	tactile	catch	NA	NA	FALSE	FALSE	FALSE	FALSE	FALSE	0	FALSE	FALSE	TRUE
p06	2015	07	14	16	13	m	21	l	8.34451265604	1	89	0.918685387995	1.44349394984	right	visual	left	visual	target	voice	344.875306822	FALSE	FALSE	FALSE	FALSE	FALSE	0	FALSE	FALSE	TRUE
p06	2015	07	14	16	13	m	21	l	8.34451265604	1	90	0.460841744032	0.754356785166	right	visual	right	tactile	target	voice	475.526225462	FALSE	FALSE	FALSE	FALSE	FALSE	0	FALSE	FALSE	TRUE
p06	2015	07	14	16	13	m	21	l	8.34451265604	1	91	0.402799510979	0.891727718502	right	visual	left	visual	target	voice	507.149371144	FALSE	FALSE	FALSE	FALSE	FALSE	0	FALSE	FALSE	TRUE
p06	2015	07	14	16	13	m	21	l	8.34451265604	1	92	0.416372750013	1.42101870942	left	tactile	right	visual	target	voice	NA	TRUE	FALSE	FALSE	FALSE	FALSE	0	FALSE	FALSE	FALSE
p06	2015	07	14	16	13	m	21	l	8.34451265604	1	93	1.05695495196	0.806058912883	left	tactile	left	tactile	target	NA	NA	FALSE	FALSE	FALSE	FALSE	FALSE	0	FALSE	FALSE	TRUE
p06	2015	07	14	16	13	m	21	l	8.34451265604	1	94	1.14553548297	1.17324363501	left	tactile	right	tactile	target	voice	430.631165684	FALSE	FALSE	FALSE	FALSE	FALSE	0	FALSE	FALSE	TRUE
p06	2015	07	14	16	13	m	21	l	8.34451265604	1	95	0.61295045499	1.04222550606	left	visual	right	visual	target	voice	412.571579625	FALSE	FALSE	FALSE	FALSE	FALSE	0	FALSE	FALSE	TRUE
p06	2015	07	14	16	13	m	21	l	8.34451265604	1	96	0.407335727999	1.12195201039	left	visual	right	tactile	target	voice	479.704042315	FALSE	FALSE	FALSE	FALSE	FALSE	0	FALSE	FALSE	TRUE
p06	2015	07	14	16	13	m	21	l	8.34451265604	1	97	0.403002511011	0.712898601496	right	visual	right	visual	target	voice	476.700525149	FALSE	FALSE	FALSE	FALSE	TRUE	0	FALSE	FALSE	TRUE
p06	2015	07	14	16	13	m	21	l	8.34451265604	1	98	0.413571139972	0.590005871828	right	visual	left	tactile	target	voice	278.625127859	FALSE	FALSE	FALSE	FALSE	FALSE	0	FALSE	FALSE	TRUE
p06	2015	07	14	16	13	m	21	l	8.34451265604	1	99	0.404777072021	0.692633760921	left	tactile	right	tactile	target	voice	364.373053715	FALSE	FALSE	FALSE	FALSE	TRUE	0	FALSE	FALSE	TRUE
p06	2015	07	14	16	13	m	21	l	8.34451265604	1	100	1.45498096303	1.30123169639	left	tactile	right	tactile	target	voice	187.717180292	FALSE	FALSE	FALSE	FALSE	TRUE	0	FALSE	FALSE	TRUE
p06	2015	07	14	16	13	m	21	l	8.34451265604	1	101	0.41655784403	0.751736408938	left	visual	right	visual	target	voice	357.705396716	FALSE	FALSE	FALSE	FALSE	TRUE	0	FALSE	FALSE	TRUE
p06	2015	07	14	16	13	m	21	l	8.34451265604	1	102	0.554974418017	0.758623386023	right	tactile	left	visual	target	voice	271.39359666	FALSE	FALSE	FALSE	FALSE	FALSE	0	FALSE	FALSE	TRUE
p06	2015	07	14	16	13	m	21	l	8.34451265604	1	103	1.37159834901	0.743653980706	right	tactile	right	visual	target	voice	369.509654935	FALSE	FALSE	FALSE	FALSE	TRUE	0	FALSE	FALSE	TRUE
p06	2015	07	14	16	13	m	21	l	8.34451265604	1	104	0.399761149951	1.02439360205	right	visual	right	visual	target	voice	338.729653624	FALSE	FALSE	FALSE	FALSE	TRUE	0	FALSE	FALSE	TRUE
p06	2015	07	14	16	13	m	21	l	8.34451265604	1	105	0.411364081025	0.792163250555	right	visual	right	tactile	target	voice	191.235996084	FALSE	FALSE	FALSE	FALSE	FALSE	0	FALSE	FALSE	TRUE
p06	2015	07	14	16	13	m	21	l	8.34451265604	1	106	0.400152318005	1.03210202457	left	visual	left	visual	target	voice	215.063596028	FALSE	FALSE	FALSE	FALSE	FALSE	0	FALSE	FALSE	TRUE
p06	2015	07	14	16	13	m	21	l	8.34451265604	1	107	0.408609404985	0.574673828153	right	visual	right	tactile	target	voice	275.805753539	FALSE	FALSE	FALSE	FALSE	FALSE	0	FALSE	FALSE	TRUE
p06	2015	07	14	16	13	m	21	l	8.34451265604	1	108	0.417659864994	1.29740329711	left	tactile	left	visual	target	voice	313.091747521	FALSE	FALSE	FALSE	FALSE	FALSE	0	FALSE	FALSE	TRUE
p06	2015	07	14	16	13	m	21	l	8.34451265604	1	109	0.402606727032	1.27753562668	right	visual	left	tactile	catch	voice	217.002764984	FALSE	FALSE	FALSE	FALSE	FALSE	0	FALSE	FALSE	TRUE
p06	2015	07	14	16	13	m	21	l	8.34451265604	1	110	0.410509304958	0.508307705191	right	visual	right	tactile	catch	NA	NA	FALSE	FALSE	FALSE	FALSE	FALSE	0	FALSE	FALSE	TRUE
p06	2015	07	14	16	13	m	21	l	8.34451265604	1	111	0.716774804052	0.72304005991	left	visual	left	visual	target	voice	NA	TRUE	FALSE	FALSE	FALSE	FALSE	0	FALSE	FALSE	FALSE
p06	2015	07	14	16	13	m	21	l	8.34451265604	1	112	2.37391864101	0.825635240853	left	tactile	left	tactile	target	NA	NA	FALSE	FALSE	FALSE	FALSE	FALSE	0	FALSE	FALSE	TRUE
p06	2015	07	14	16	13	m	21	l	8.34451265604	1	113	0.971274990006	0.709659568516	left	visual	left	visual	catch	NA	NA	FALSE	FALSE	FALSE	FALSE	FALSE	0	FALSE	FALSE	TRUE
p06	2015	07	14	16	13	m	21	l	8.34451265604	1	114	2.38489324902	1.1443742638	right	visual	left	tactile	target	voice	398.541158822	FALSE	FALSE	FALSE	FALSE	FALSE	0	FALSE	FALSE	TRUE
p06	2015	07	14	16	13	m	21	l	8.34451265604	1	115	1.32655427203	1.07619954984	left	tactile	right	tactile	catch	NA	NA	FALSE	FALSE	FALSE	FALSE	FALSE	0	FALSE	FALSE	TRUE
p06	2015	07	14	16	13	m	21	l	8.34451265604	1	116	0.469400435977	1.31095037011	right	tactile	left	tactile	target	voice	424.243925605	FALSE	FALSE	FALSE	FALSE	FALSE	0	FALSE	FALSE	TRUE
p06	2015	07	14	16	13	m	21	l	8.34451265604	1	117	0.41424243903	0.544160728953	left	tactile	right	visual	target	voice	296.312310733	FALSE	FALSE	FALSE	FALSE	TRUE	0	FALSE	FALSE	TRUE
p06	2015	07	14	16	13	m	21	l	8.34451265604	1	118	1.21527954499	0.876149198022	left	tactile	right	visual	target	voice	303.973688628	FALSE	FALSE	FALSE	FALSE	TRUE	0	FALSE	FALSE	TRUE
p06	2015	07	14	16	13	m	21	l	8.34451265604	1	119	0.420604070008	1.3127437629	right	tactile	right	tactile	target	voice	210.777589702	FALSE	FALSE	FALSE	FALSE	TRUE	0	FALSE	FALSE	TRUE
p06	2015	07	14	16	13	m	21	l	8.34451265604	1	120	2.92756429	1.15972424804	left	tactile	left	visual	target	voice	533.150367613	FALSE	FALSE	FALSE	FALSE	FALSE	0	FALSE	FALSE	TRUE
p06	2015	07	14	16	13	m	21	l	4.04145904502	1	121	0.528877292993	0.803474122751	right	tactile	right	visual	target	voice	403.713100881	FALSE	FALSE	FALSE	FALSE	FALSE	0	FALSE	FALSE	TRUE
p06	2015	07	14	16	13	m	21	l	4.04145904502	1	122	0.463624721975	0.888443560173	left	visual	right	tactile	target	voice	376.807612483	FALSE	FALSE	FALSE	FALSE	FALSE	0	FALSE	FALSE	TRUE
p06	2015	07	14	16	13	m	21	l	4.04145904502	1	123	2.20864006196	0.682025460348	left	visual	left	tactile	target	voice	519.772996311	FALSE	FALSE	FALSE	FALSE	FALSE	0	FALSE	FALSE	TRUE
p06	2015	07	14	16	13	m	21	l	4.04145904502	1	124	0.577956551977	1.2910225477	right	visual	left	visual	target	voice	267.678775941	FALSE	FALSE	FALSE	FALSE	FALSE	0	FALSE	FALSE	TRUE
p06	2015	07	14	16	13	m	21	l	4.04145904502	1	125	0.405806711002	1.21072840999	left	visual	right	visual	target	voice	238.29830566	FALSE	FALSE	FALSE	FALSE	FALSE	0	FALSE	FALSE	TRUE
p06	2015	07	14	16	13	m	21	l	4.04145904502	1	126	0.424755332002	0.67199930005	left	visual	left	visual	target	voice	389.377024607	FALSE	FALSE	FALSE	FALSE	FALSE	0	FALSE	FALSE	TRUE
p06	2015	07	14	16	13	m	21	l	4.04145904502	1	127	0.420256883022	1.11600117457	right	tactile	left	visual	target	voice	234.091230086	FALSE	FALSE	FALSE	FALSE	FALSE	0	FALSE	FALSE	TRUE
p06	2015	07	14	16	13	m	21	l	4.04145904502	1	128	0.409559299995	0.685413151578	right	tactile	left	visual	target	voice	382.139927126	FALSE	FALSE	FALSE	FALSE	FALSE	0	FALSE	FALSE	TRUE
p06	2015	07	14	16	13	m	21	l	4.04145904502	1	129	2.39473963797	0.834164198049	right	tactile	right	tactile	catch	NA	NA	FALSE	FALSE	FALSE	FALSE	FALSE	0	FALSE	FALSE	TRUE
p06	2015	07	14	16	13	m	21	l	4.04145904502	1	130	0.860001019959	1.36452213278	right	tactile	left	visual	target	voice	289.298018848	FALSE	FALSE	FALSE	FALSE	FALSE	0	FALSE	FALSE	TRUE
p06	2015	07	14	16	13	m	21	l	4.04145904502	1	131	0.439557687961	0.703272884694	left	tactile	left	tactile	target	voice	375.593854929	FALSE	FALSE	FALSE	FALSE	FALSE	0	FALSE	FALSE	TRUE
p06	2015	07	14	16	13	m	21	l	4.04145904502	1	132	2.124959932	1.26346492662	left	visual	left	visual	target	voice	518.375842017	FALSE	FALSE	FALSE	FALSE	FALSE	0	FALSE	FALSE	TRUE
p06	2015	07	14	16	13	m	21	l	4.04145904502	1	133	0.580818224989	0.757146228371	left	tactile	left	tactile	target	voice	386.951845256	FALSE	FALSE	FALSE	FALSE	FALSE	0	FALSE	FALSE	TRUE
p06	2015	07	14	16	13	m	21	l	4.04145904502	1	134	2.37111799198	1.46200840816	right	visual	right	visual	target	voice	396.779322531	FALSE	FALSE	FALSE	FALSE	FALSE	0	FALSE	FALSE	TRUE
p06	2015	07	14	16	13	m	21	l	4.04145904502	1	135	0.440113550983	0.81096411087	right	visual	left	visual	target	voice	313.834281755	FALSE	FALSE	FALSE	FALSE	FALSE	0	FALSE	FALSE	TRUE
p06	2015	07	14	16	13	m	21	l	4.04145904502	1	136	0.564178485016	0.891429336207	left	visual	left	tactile	target	voice	384.871618473	FALSE	FALSE	FALSE	FALSE	FALSE	0	FALSE	FALSE	TRUE
p06	2015	07	14	16	13	m	21	l	4.04145904502	1	137	0.593166224018	0.622575228987	left	tactile	right	visual	target	voice	401.096422691	FALSE	FALSE	FALSE	FALSE	FALSE	0	FALSE	FALSE	TRUE
p06	2015	07	14	16	13	m	21	l	4.04145904502	1	138	2.22325557499	1.1704245202	right	tactile	left	tactile	target	voice	305.927068461	FALSE	FALSE	FALSE	FALSE	TRUE	0	FALSE	FALSE	TRUE
p06	2015	07	14	16	13	m	21	l	4.04145904502	1	139	0.667628596013	1.10435361086	left	visual	right	visual	catch	voice	NA	TRUE	FALSE	FALSE	FALSE	FALSE	0	FALSE	FALSE	FALSE
p06	2015	07	14	16	13	m	21	l	4.04145904502	1	140	1.33826649596	1.10392797493	right	visual	right	visual	target	voice	370.460210717	FALSE	FALSE	FALSE	FALSE	FALSE	0	FALSE	FALSE	TRUE
p06	2015	07	14	16	13	m	21	l	4.04145904502	1	141	0.566144303011	0.625185390371	right	tactile	right	visual	target	voice	362.589301309	FALSE	FALSE	FALSE	FALSE	FALSE	0	FALSE	FALSE	TRUE
p06	2015	07	14	16	13	m	21	l	4.04145904502	1	142	0.790028440999	1.01647847348	right	tactile	right	tactile	target	voice	580.54108714	FALSE	FALSE	FALSE	FALSE	FALSE	0	FALSE	FALSE	TRUE
p06	2015	07	14	16	13	m	21	l	4.04145904502	1	143	0.585723617987	1.29801927898	right	tactile	right	visual	target	voice	NA	TRUE	FALSE	FALSE	FALSE	FALSE	0	FALSE	FALSE	FALSE
p06	2015	07	14	16	13	m	21	l	4.04145904502	1	144	1.61346413998	1.45446112752	left	tactile	right	visual	catch	NA	NA	FALSE	FALSE	FALSE	FALSE	FALSE	0	FALSE	FALSE	TRUE
p06	2015	07	14	16	13	m	21	l	4.04145904502	1	145	0.567307060992	0.752732544227	right	tactile	right	tactile	target	voice	717.875698465	FALSE	FALSE	FALSE	FALSE	FALSE	0	FALSE	FALSE	TRUE
p06	2015	07	14	16	13	m	21	l	4.04145904502	1	146	1.352781063	1.43729826655	left	tactile	left	tactile	target	voice	650.529035076	FALSE	FALSE	FALSE	FALSE	FALSE	0	FALSE	FALSE	TRUE
p06	2015	07	14	16	13	m	21	l	4.04145904502	1	147	1.67924304598	0.574775124016	left	tactile	right	visual	target	voice	396.561114641	FALSE	FALSE	FALSE	FALSE	FALSE	0	FALSE	FALSE	TRUE
p06	2015	07	14	16	13	m	21	l	4.04145904502	1	148	0.601942242996	1.15086824441	right	visual	right	visual	catch	NA	NA	FALSE	FALSE	FALSE	FALSE	FALSE	0	FALSE	FALSE	TRUE
p06	2015	07	14	16	13	m	21	l	4.04145904502	1	149	0.711848767009	1.06890784859	left	tactile	left	tactile	target	voice	439.995086053	FALSE	FALSE	FALSE	FALSE	TRUE	0	FALSE	TRUE	TRUE
p06	2015	07	14	16	13	m	21	l	4.04145904502	1	150	3.989417181	1.21714635034	left	visual	left	visual	target	voice	439.603063278	FALSE	FALSE	FALSE	FALSE	FALSE	0	FALSE	FALSE	TRUE
p06	2015	07	14	16	13	m	21	l	4.04145904502	1	151	0.415501097974	0.754929566182	right	tactile	right	tactile	target	voice	253.660510527	FALSE	FALSE	FALSE	FALSE	FALSE	0	FALSE	FALSE	TRUE
p06	2015	07	14	16	13	m	21	l	4.04145904502	1	152	0.408478725993	0.65399875116	right	tactile	left	visual	target	voice	336.801083526	FALSE	FALSE	FALSE	FALSE	FALSE	0	FALSE	FALSE	TRUE
p06	2015	07	14	16	13	m	21	l	4.04145904502	1	153	0.42450802197	1.37502415557	right	visual	left	visual	target	voice	251.590513042	FALSE	FALSE	FALSE	FALSE	FALSE	0	FALSE	FALSE	TRUE
p06	2015	07	14	16	13	m	21	l	4.04145904502	1	154	0.399300056975	1.07819342409	right	tactile	right	visual	target	voice	289.120934554	FALSE	FALSE	FALSE	FALSE	FALSE	0	FALSE	FALSE	TRUE
p06	2015	07	14	16	13	m	21	l	4.04145904502	1	155	0.424295907957	1.21948061301	left	visual	right	visual	target	voice	229.380519653	FALSE	FALSE	FALSE	FALSE	FALSE	0	FALSE	FALSE	TRUE
p06	2015	07	14	16	13	m	21	l	4.04145904502	1	156	0.403354248963	1.26917485439	right	visual	left	visual	target	voice	250.634841272	FALSE	FALSE	FALSE	FALSE	FALSE	0	FALSE	FALSE	TRUE
p06	2015	07	14	16	13	m	21	l	4.04145904502	1	157	0.403307638015	1.11292495918	left	visual	right	tactile	target	voice	461.297842499	FALSE	FALSE	FALSE	FALSE	FALSE	0	FALSE	FALSE	TRUE
p06	2015	07	14	16	13	m	21	l	4.04145904502	1	158	1.83482637204	1.04932934286	right	tactile	left	visual	target	voice	324.932848802	FALSE	FALSE	FALSE	FALSE	TRUE	0	FALSE	FALSE	TRUE
p06	2015	07	14	16	13	m	21	l	4.04145904502	1	159	0.425284038996	1.49539743294	left	tactile	left	visual	target	voice	339.48430873	FALSE	FALSE	FALSE	FALSE	FALSE	0	FALSE	FALSE	TRUE
p06	2015	07	14	16	13	m	21	l	4.04145904502	1	160	1.23969553399	0.997592280371	right	tactile	left	tactile	target	voice	354.940481309	FALSE	FALSE	FALSE	FALSE	FALSE	0	FALSE	FALSE	TRUE
p06	2015	07	14	16	13	m	21	l	82.402668482	2	1	1.58915396698	1.25620323375	right	visual	left	tactile	target	voice	298.552702938	FALSE	FALSE	FALSE	FALSE	FALSE	0	FALSE	FALSE	TRUE
p06	2015	07	14	16	13	m	21	l	82.402668482	2	2	3.653079223	1.07004363948	left	visual	right	visual	catch	NA	NA	FALSE	FALSE	FALSE	FALSE	FALSE	0	FALSE	FALSE	TRUE
p06	2015	07	14	16	13	m	21	l	82.402668482	2	3	0.421881871996	1.43741380963	right	tactile	left	tactile	catch	voice	NA	TRUE	FALSE	FALSE	FALSE	FALSE	0	FALSE	FALSE	FALSE
p06	2015	07	14	16	13	m	21	l	82.402668482	2	4	1.26043162	1.20413730828	left	visual	left	visual	target	voice	418.276787386	FALSE	FALSE	FALSE	FALSE	FALSE	0	FALSE	FALSE	TRUE
p06	2015	07	14	16	13	m	21	l	82.402668482	2	5	0.637466755987	0.890340167044	right	visual	left	visual	target	voice	294.288879668	FALSE	FALSE	FALSE	FALSE	FALSE	0	FALSE	FALSE	TRUE
p06	2015	07	14	16	13	m	21	l	82.402668482	2	6	0.53708387498	0.524772018776	left	tactile	right	visual	catch	NA	NA	FALSE	FALSE	FALSE	FALSE	FALSE	0	FALSE	FALSE	TRUE
p06	2015	07	14	16	13	m	21	l	82.402668482	2	7	0.611070906045	0.944835909093	right	tactile	left	visual	target	voice	272.297969554	FALSE	FALSE	FALSE	FALSE	FALSE	0	FALSE	FALSE	TRUE
p06	2015	07	14	16	13	m	21	l	82.402668482	2	8	0.693119196978	0.682690264582	right	visual	right	visual	target	voice	346.316063078	FALSE	FALSE	FALSE	FALSE	FALSE	0	FALSE	FALSE	TRUE
p06	2015	07	14	16	13	m	21	l	82.402668482	2	9	0.557532923005	1.34176823923	right	tactile	right	visual	target	voice	303.221092443	FALSE	FALSE	FALSE	FALSE	FALSE	0	FALSE	FALSE	TRUE
p06	2015	07	14	16	13	m	21	l	82.402668482	2	10	0.458791208046	0.885433647214	left	visual	right	tactile	target	voice	226.841784432	FALSE	FALSE	FALSE	FALSE	FALSE	0	FALSE	FALSE	TRUE
p06	2015	07	14	16	13	m	21	l	82.402668482	2	11	0.536495169974	0.693038815565	left	visual	left	tactile	target	voice	229.594156088	FALSE	FALSE	FALSE	FALSE	FALSE	0	FALSE	FALSE	TRUE
p06	2015	07	14	16	13	m	21	l	82.402668482	2	12	0.558933402004	1.40332400189	left	visual	left	tactile	target	voice	231.822686794	FALSE	FALSE	FALSE	FALSE	FALSE	0	FALSE	FALSE	TRUE
p06	2015	07	14	16	13	m	21	l	82.402668482	2	13	0.601885854034	1.26633119381	left	visual	left	tactile	target	voice	243.092742865	FALSE	FALSE	FALSE	FALSE	TRUE	0	FALSE	FALSE	TRUE
p06	2015	07	14	16	13	m	21	l	82.402668482	2	14	0.511153351981	0.969449455267	left	visual	left	tactile	catch	NA	NA	FALSE	FALSE	FALSE	FALSE	FALSE	0	FALSE	FALSE	TRUE
p06	2015	07	14	16	13	m	21	l	82.402668482	2	15	1.08414461702	0.668217504164	left	tactile	right	tactile	target	voice	263.714453497	FALSE	FALSE	FALSE	FALSE	FALSE	0	FALSE	FALSE	TRUE
p06	2015	07	14	16	13	m	21	l	82.402668482	2	16	0.404886875011	1.30228973336	right	tactile	left	visual	target	voice	261.089758249	FALSE	FALSE	FALSE	FALSE	FALSE	0	FALSE	FALSE	TRUE
p06	2015	07	14	16	13	m	21	l	82.402668482	2	17	0.408954404003	1.41832612408	right	tactile	right	visual	catch	NA	NA	FALSE	FALSE	FALSE	FALSE	TRUE	0	FALSE	FALSE	TRUE
p06	2015	07	14	16	13	m	21	l	82.402668482	2	18	2.24582689401	0.549069471083	left	tactile	left	visual	target	voice	337.057684606	FALSE	FALSE	FALSE	FALSE	FALSE	0	FALSE	FALSE	TRUE
p06	2015	07	14	16	13	m	21	l	82.402668482	2	19	0.401931139	1.13743864136	left	tactile	right	visual	target	voice	238.298071316	FALSE	FALSE	FALSE	FALSE	FALSE	0	FALSE	FALSE	TRUE
p06	2015	07	14	16	13	m	21	l	82.402668482	2	20	0.413329177012	1.2408679146	left	visual	right	visual	target	voice	227.67237213	FALSE	FALSE	FALSE	FALSE	FALSE	0	FALSE	FALSE	TRUE
p06	2015	07	14	16	13	m	21	l	82.402668482	2	21	0.402120615996	0.616153443864	right	visual	left	visual	target	voice	252.490418789	FALSE	FALSE	FALSE	FALSE	FALSE	0	FALSE	FALSE	TRUE
p06	2015	07	14	16	13	m	21	l	82.402668482	2	22	0.403610264999	0.997644780914	left	visual	left	tactile	target	voice	525.185878738	FALSE	FALSE	FALSE	FALSE	TRUE	0	FALSE	TRUE	TRUE
p06	2015	07	14	16	13	m	21	l	82.402668482	2	23	1.93488017097	1.38920367804	left	tactile	right	tactile	target	voice	276.582251594	FALSE	FALSE	FALSE	FALSE	FALSE	0	FALSE	FALSE	TRUE
p06	2015	07	14	16	13	m	21	l	82.402668482	2	24	0.417801814037	0.901504296997	left	tactile	right	visual	target	voice	244.657347677	FALSE	FALSE	FALSE	FALSE	FALSE	0	FALSE	FALSE	TRUE
p06	2015	07	14	16	13	m	21	l	82.402668482	2	25	0.398919778003	0.733779010165	left	visual	left	tactile	target	voice	175.524975464	FALSE	FALSE	FALSE	FALSE	FALSE	0	FALSE	FALSE	TRUE
p06	2015	07	14	16	13	m	21	l	82.402668482	2	26	0.540611022967	1.15678190902	right	tactile	right	tactile	target	voice	415.089329646	FALSE	FALSE	FALSE	FALSE	FALSE	0	FALSE	FALSE	TRUE
p06	2015	07	14	16	13	m	21	l	82.402668482	2	27	0.44580772199	0.941806979292	left	tactile	left	tactile	target	voice	315.456223383	FALSE	FALSE	FALSE	FALSE	FALSE	0	FALSE	FALSE	TRUE
p06	2015	07	14	16	13	m	21	l	82.402668482	2	28	2.465131103	1.16778583329	right	visual	right	tactile	target	voice	NA	TRUE	FALSE	FALSE	FALSE	FALSE	0	FALSE	FALSE	FALSE
p06	2015	07	14	16	13	m	21	l	82.402668482	2	29	0.925918676017	1.35953310032	right	tactile	left	visual	catch	NA	NA	FALSE	FALSE	FALSE	FALSE	FALSE	0	FALSE	FALSE	TRUE
p06	2015	07	14	16	13	m	21	l	82.402668482	2	30	1.95999897702	0.993845685794	right	visual	left	tactile	target	voice	323.828174849	FALSE	FALSE	FALSE	FALSE	FALSE	0	FALSE	FALSE	TRUE
p06	2015	07	14	16	13	m	21	l	82.402668482	2	31	0.405552508018	0.669993512978	right	tactile	left	visual	target	voice	325.572729693	FALSE	FALSE	FALSE	FALSE	FALSE	0	FALSE	FALSE	TRUE
p06	2015	07	14	16	13	m	21	l	82.402668482	2	32	0.397845489031	1.23028078527	right	tactile	left	tactile	target	voice	297.022021317	FALSE	FALSE	FALSE	FALSE	FALSE	0	FALSE	FALSE	TRUE
p06	2015	07	14	16	13	m	21	l	82.402668482	2	33	0.402363608009	0.910263750416	right	tactile	right	visual	target	voice	301.813611237	FALSE	FALSE	FALSE	FALSE	FALSE	0	FALSE	FALSE	TRUE
p06	2015	07	14	16	13	m	21	l	82.402668482	2	34	0.410164778004	0.75898471699	left	visual	right	tactile	target	voice	NA	TRUE	FALSE	FALSE	FALSE	FALSE	0	FALSE	FALSE	FALSE
p06	2015	07	14	16	13	m	21	l	82.402668482	2	35	1.82305776898	1.107758081	right	visual	left	visual	catch	NA	NA	FALSE	FALSE	FALSE	FALSE	FALSE	0	FALSE	FALSE	TRUE
p06	2015	07	14	16	13	m	21	l	82.402668482	2	36	0.67088862299	0.73799307182	left	visual	left	tactile	target	voice	NA	TRUE	FALSE	FALSE	FALSE	FALSE	0	FALSE	FALSE	FALSE
p06	2015	07	14	16	13	m	21	l	82.402668482	2	37	0.894379617996	0.714333754964	left	tactile	right	visual	target	voice	802.754125732	FALSE	FALSE	FALSE	FALSE	FALSE	0	FALSE	FALSE	TRUE
p06	2015	07	14	16	13	m	21	l	82.402668482	2	38	0.59967783402	0.828533974541	right	visual	right	tactile	target	voice	485.312260105	FALSE	FALSE	FALSE	FALSE	FALSE	0	FALSE	FALSE	TRUE
p06	2015	07	14	16	13	m	21	l	82.402668482	2	39	0.40880095301	0.845509400306	right	visual	left	tactile	target	voice	189.800504362	FALSE	FALSE	FALSE	FALSE	FALSE	0	FALSE	FALSE	TRUE
p06	2015	07	14	16	13	m	21	l	82.402668482	2	40	0.546845798031	0.729948701284	right	visual	left	tactile	target	voice	202.669486403	FALSE	FALSE	FALSE	FALSE	FALSE	0	FALSE	FALSE	TRUE
p06	2015	07	14	16	13	m	21	l	5.56710042298	2	41	0.623954600014	1.43049201928	right	visual	right	visual	target	voice	394.667589397	FALSE	FALSE	FALSE	FALSE	FALSE	0	FALSE	FALSE	TRUE
p06	2015	07	14	16	13	m	21	l	5.56710042298	2	42	4.41170623997	0.99026950299	right	visual	left	visual	target	voice	268.121119705	FALSE	FALSE	FALSE	FALSE	TRUE	0	FALSE	TRUE	TRUE
p06	2015	07	14	16	13	m	21	l	5.56710042298	2	43	0.682848318014	0.691805779476	right	tactile	left	tactile	target	voice	194.746254187	FALSE	FALSE	FALSE	FALSE	FALSE	0	FALSE	FALSE	TRUE
p06	2015	07	14	16	13	m	21	l	5.56710042298	2	44	0.569462122978	1.41632106082	right	visual	right	tactile	target	voice	286.756489833	FALSE	FALSE	FALSE	FALSE	FALSE	0	FALSE	FALSE	TRUE
p06	2015	07	14	16	13	m	21	l	5.56710042298	2	45	0.434169461019	0.82829150319	left	tactile	left	tactile	target	voice	345.387894486	FALSE	FALSE	FALSE	FALSE	FALSE	0	FALSE	FALSE	TRUE
p06	2015	07	14	16	13	m	21	l	5.56710042298	2	46	1.99415440601	1.38877922882	left	tactile	left	visual	target	voice	339.288071846	FALSE	FALSE	FALSE	FALSE	FALSE	0	FALSE	FALSE	TRUE
p06	2015	07	14	16	13	m	21	l	5.56710042298	2	47	0.43640923698	1.02019892083	left	visual	left	visual	target	voice	240.038288815	FALSE	FALSE	FALSE	FALSE	FALSE	0	FALSE	FALSE	TRUE
p06	2015	07	14	16	13	m	21	l	5.56710042298	2	48	1.38568909903	0.814272786665	left	tactile	right	tactile	target	voice	237.53728898	FALSE	FALSE	FALSE	FALSE	FALSE	0	FALSE	FALSE	TRUE
p06	2015	07	14	16	13	m	21	l	5.56710042298	2	49	1.04848678602	1.20651353498	right	visual	left	tactile	target	voice	364.615859638	FALSE	FALSE	FALSE	FALSE	FALSE	0	FALSE	FALSE	TRUE
p06	2015	07	14	16	13	m	21	l	5.56710042298	2	50	0.823031145032	0.605651113481	right	visual	left	tactile	catch	NA	NA	FALSE	FALSE	FALSE	FALSE	FALSE	0	FALSE	FALSE	TRUE
p06	2015	07	14	16	13	m	21	l	5.56710042298	2	51	0.582292893028	0.921778983322	right	visual	left	tactile	target	voice	249.764489359	FALSE	FALSE	FALSE	FALSE	FALSE	0	FALSE	FALSE	TRUE
p06	2015	07	14	16	13	m	21	l	5.56710042298	2	52	0.673739310994	1.16396964863	left	tactile	left	tactile	target	voice	351.712547999	FALSE	FALSE	FALSE	FALSE	FALSE	0	FALSE	FALSE	TRUE
p06	2015	07	14	16	13	m	21	l	5.56710042298	2	53	0.705042360991	1.32807357795	left	visual	right	visual	target	voice	218.56080665	FALSE	FALSE	FALSE	FALSE	FALSE	0	FALSE	FALSE	TRUE
p06	2015	07	14	16	13	m	21	l	5.56710042298	2	54	0.67467412597	1.28750566997	left	visual	left	visual	target	voice	294.102786691	FALSE	FALSE	FALSE	FALSE	FALSE	0	FALSE	FALSE	TRUE
p06	2015	07	14	16	13	m	21	l	5.56710042298	2	55	0.735042212007	1.10368487099	left	tactile	right	tactile	target	voice	324.365150649	FALSE	FALSE	FALSE	FALSE	FALSE	0	FALSE	FALSE	TRUE
p06	2015	07	14	16	13	m	21	l	5.56710042298	2	56	0.407570839045	1.07366172109	right	tactile	right	visual	target	voice	408.378433611	FALSE	FALSE	FALSE	FALSE	FALSE	0	FALSE	FALSE	TRUE
p06	2015	07	14	16	13	m	21	l	5.56710042298	2	57	0.707292153034	0.931624014792	left	visual	right	tactile	catch	NA	NA	FALSE	FALSE	FALSE	FALSE	FALSE	0	FALSE	FALSE	TRUE
p06	2015	07	14	16	13	m	21	l	5.56710042298	2	58	0.393587278028	0.501074030413	right	tactile	right	visual	target	voice	NA	TRUE	FALSE	FALSE	FALSE	FALSE	0	FALSE	FALSE	FALSE
p06	2015	07	14	16	13	m	21	l	5.56710042298	2	59	0.718423954037	0.72198461834	left	tactile	left	visual	catch	NA	NA	FALSE	FALSE	FALSE	FALSE	FALSE	0	FALSE	FALSE	TRUE
p06	2015	07	14	16	13	m	21	l	5.56710042298	2	60	0.50635000295	1.30311199805	right	tactile	right	tactile	target	voice	544.27664855	FALSE	FALSE	FALSE	FALSE	TRUE	0	FALSE	FALSE	TRUE
p06	2015	07	14	16	13	m	21	l	5.56710042298	2	61	0.420818759012	0.671249950827	right	visual	right	tactile	target	voice	237.711976864	FALSE	FALSE	FALSE	FALSE	TRUE	0	FALSE	FALSE	TRUE
p06	2015	07	14	16	13	m	21	l	5.56710042298	2	62	0.548155832046	0.953716574297	right	visual	left	visual	target	voice	340.013546345	FALSE	FALSE	FALSE	FALSE	FALSE	0	FALSE	FALSE	TRUE
p06	2015	07	14	16	13	m	21	l	5.56710042298	2	63	0.400366318005	1.40640960665	right	tactile	right	visual	target	voice	341.750386986	FALSE	FALSE	FALSE	FALSE	FALSE	0	FALSE	FALSE	TRUE
p06	2015	07	14	16	13	m	21	l	5.56710042298	2	64	0.425604199001	0.57553745408	left	visual	right	visual	target	voice	286.88481258	FALSE	FALSE	FALSE	FALSE	FALSE	0	FALSE	FALSE	TRUE
p06	2015	07	14	16	13	m	21	l	5.56710042298	2	65	0.614131172013	1.24444464556	left	visual	left	visual	target	voice	457.953997131	FALSE	FALSE	FALSE	FALSE	FALSE	0	FALSE	FALSE	TRUE
p06	2015	07	14	16	13	m	21	l	5.56710042298	2	66	0.409485741984	1.47870463615	right	tactile	right	tactile	target	voice	424.111209461	FALSE	FALSE	FALSE	FALSE	FALSE	0	FALSE	FALSE	TRUE
p06	2015	07	14	16	13	m	21	l	5.56710042298	2	67	0.729015111981	0.88006967818	left	tactile	right	tactile	target	voice	341.096668446	FALSE	FALSE	FALSE	FALSE	FALSE	0	FALSE	FALSE	TRUE
p06	2015	07	14	16	13	m	21	l	5.56710042298	2	68	0.443125943013	0.876931983093	right	tactile	left	tactile	target	voice	371.39324256	FALSE	FALSE	FALSE	FALSE	FALSE	0	FALSE	FALSE	TRUE
p06	2015	07	14	16	13	m	21	l	5.56710042298	2	69	0.405257181963	0.651784516452	right	tactile	left	tactile	target	voice	342.391184182	FALSE	FALSE	FALSE	FALSE	FALSE	0	FALSE	FALSE	TRUE
p06	2015	07	14	16	13	m	21	l	5.56710042298	2	70	0.415623373992	0.79318188973	right	tactile	left	visual	target	voice	403.784868889	FALSE	FALSE	FALSE	FALSE	FALSE	0	FALSE	FALSE	TRUE
p06	2015	07	14	16	13	m	21	l	5.56710042298	2	71	0.450169838965	1.0799270718	right	visual	left	visual	target	voice	231.747590879	FALSE	FALSE	FALSE	FALSE	FALSE	0	FALSE	FALSE	TRUE
p06	2015	07	14	16	13	m	21	l	5.56710042298	2	72	1.48815795599	1.08262727364	right	tactile	right	tactile	target	voice	459.557904047	FALSE	FALSE	FALSE	FALSE	FALSE	0	FALSE	FALSE	TRUE
p06	2015	07	14	16	13	m	21	l	5.56710042298	2	73	0.460931897978	1.04143408758	left	visual	right	visual	target	voice	364.494283102	FALSE	FALSE	FALSE	FALSE	TRUE	0	FALSE	TRUE	TRUE
p06	2015	07	14	16	13	m	21	l	5.56710042298	2	74	0.500787633006	1.41288516689	left	visual	right	tactile	target	voice	398.264660791	FALSE	FALSE	FALSE	FALSE	FALSE	0	FALSE	FALSE	TRUE
p06	2015	07	14	16	13	m	21	l	5.56710042298	2	75	0.400617534993	0.984763259304	left	tactile	left	visual	target	voice	405.279590341	FALSE	FALSE	FALSE	FALSE	FALSE	0	FALSE	FALSE	TRUE
p06	2015	07	14	16	13	m	21	l	5.56710042298	2	76	0.608837154985	1.38198338714	right	tactile	left	tactile	target	voice	270.724738482	FALSE	FALSE	FALSE	FALSE	FALSE	0	FALSE	FALSE	TRUE
p06	2015	07	14	16	13	m	21	l	5.56710042298	2	77	0.983352048032	1.28797834026	left	visual	left	visual	catch	NA	NA	FALSE	FALSE	FALSE	FALSE	FALSE	0	FALSE	FALSE	TRUE
p06	2015	07	14	16	13	m	21	l	5.56710042298	2	78	1.05642285501	0.767716147631	left	visual	right	visual	target	voice	284.534954	FALSE	FALSE	FALSE	FALSE	FALSE	0	FALSE	FALSE	TRUE
p06	2015	07	14	16	13	m	21	l	5.56710042298	2	79	0.552665686992	1.15197404486	right	visual	right	tactile	target	voice	242.132567801	FALSE	FALSE	FALSE	FALSE	FALSE	0	FALSE	FALSE	TRUE
p06	2015	07	14	16	13	m	21	l	5.56710042298	2	80	0.512827911007	1.18072430348	left	tactile	left	tactile	target	voice	289.480808191	FALSE	FALSE	FALSE	FALSE	FALSE	0	FALSE	FALSE	TRUE
p06	2015	07	14	16	13	m	21	l	3.36935926805	2	81	0.715432305995	1.01319543279	left	tactile	right	tactile	target	voice	488.192755845	FALSE	FALSE	FALSE	FALSE	FALSE	0	FALSE	FALSE	TRUE
p06	2015	07	14	16	13	m	21	l	3.36935926805	2	82	0.469501528016	0.67644997474	right	visual	left	tactile	target	voice	236.852873873	FALSE	FALSE	FALSE	FALSE	FALSE	0	FALSE	FALSE	TRUE
p06	2015	07	14	16	13	m	21	l	3.36935926805	2	83	0.558654454013	1.25010706271	left	visual	left	tactile	target	voice	405.363774975	FALSE	FALSE	FALSE	FALSE	TRUE	0	FALSE	FALSE	TRUE
p06	2015	07	14	16	13	m	21	l	3.36935926805	2	84	0.695168075035	0.947332609224	right	visual	left	tactile	target	voice	277.64264046	FALSE	FALSE	FALSE	FALSE	FALSE	0	FALSE	FALSE	TRUE
p06	2015	07	14	16	13	m	21	l	3.36935926805	2	85	1.959138843	1.33777469467	right	visual	right	tactile	catch	voice	NA	TRUE	FALSE	FALSE	FALSE	FALSE	0	FALSE	FALSE	FALSE
p06	2015	07	14	16	13	m	21	l	3.36935926805	2	86	0.911522547016	0.985572204465	left	visual	right	tactile	target	voice	213.487585192	FALSE	FALSE	FALSE	FALSE	FALSE	0	FALSE	FALSE	TRUE
p06	2015	07	14	16	13	m	21	l	3.36935926805	2	87	2.25254190102	0.729489058834	right	visual	left	visual	target	voice	256.24865084	FALSE	FALSE	FALSE	FALSE	TRUE	0	FALSE	FALSE	TRUE
p06	2015	07	14	16	13	m	21	l	3.36935926805	2	88	0.765486835036	0.780206772017	left	visual	right	visual	target	voice	224.99834263	FALSE	FALSE	FALSE	FALSE	FALSE	0	FALSE	FALSE	TRUE
p06	2015	07	14	16	13	m	21	l	3.36935926805	2	89	0.565191500005	1.41103119447	right	visual	right	tactile	target	voice	240.709844162	FALSE	FALSE	FALSE	FALSE	FALSE	0	FALSE	FALSE	TRUE
p06	2015	07	14	16	13	m	21	l	3.36935926805	2	90	0.81307606498	0.795539440579	left	tactile	right	visual	target	voice	165.391959075	FALSE	FALSE	FALSE	FALSE	FALSE	0	FALSE	FALSE	TRUE
p06	2015	07	14	16	13	m	21	l	3.36935926805	2	91	0.818984716956	1.16464124976	left	tactile	right	visual	target	voice	NA	TRUE	FALSE	FALSE	FALSE	FALSE	0	FALSE	FALSE	FALSE
p06	2015	07	14	16	13	m	21	l	3.36935926805	2	92	0.887149986986	0.588480317158	left	tactile	right	visual	target	voice	NA	TRUE	FALSE	FALSE	FALSE	FALSE	0	FALSE	FALSE	FALSE
p06	2015	07	14	16	13	m	21	l	3.36935926805	2	93	1.42306016001	1.07552106551	right	tactile	left	tactile	target	voice	365.658484166	FALSE	FALSE	FALSE	FALSE	FALSE	0	FALSE	FALSE	TRUE
p06	2015	07	14	16	13	m	21	l	3.36935926805	2	94	0.740043850965	1.49895412793	right	visual	right	visual	catch	NA	NA	FALSE	FALSE	FALSE	FALSE	FALSE	0	FALSE	FALSE	TRUE
p06	2015	07	14	16	13	m	21	l	3.36935926805	2	95	0.763302233012	0.840729289159	right	tactile	right	tactile	target	voice	454.0081835	FALSE	FALSE	FALSE	FALSE	FALSE	0	FALSE	FALSE	TRUE
p06	2015	07	14	16	13	m	21	l	3.36935926805	2	96	0.834679746011	1.09310826614	left	visual	right	tactile	target	voice	401.81186056	FALSE	FALSE	FALSE	FALSE	FALSE	0	FALSE	FALSE	TRUE
p06	2015	07	14	16	13	m	21	l	3.36935926805	2	97	0.58008601598	0.565768762496	right	visual	right	visual	target	voice	401.331881178	FALSE	FALSE	FALSE	FALSE	FALSE	0	FALSE	FALSE	TRUE
p06	2015	07	14	16	13	m	21	l	3.36935926805	2	98	0.484476537036	1.48307753822	right	visual	right	visual	target	voice	521.698801487	FALSE	FALSE	FALSE	FALSE	FALSE	0	FALSE	FALSE	TRUE
p06	2015	07	14	16	13	m	21	l	3.36935926805	2	99	0.479787540971	0.638012922386	right	tactile	left	visual	target	voice	365.485317307	FALSE	FALSE	FALSE	FALSE	FALSE	0	FALSE	FALSE	TRUE
p06	2015	07	14	16	13	m	21	l	3.36935926805	2	100	2.07709379203	0.595875294231	left	tactile	left	tactile	target	voice	NA	TRUE	FALSE	FALSE	FALSE	FALSE	0	FALSE	FALSE	FALSE
p06	2015	07	14	16	13	m	21	l	3.36935926805	2	101	4.83849962201	0.541186353282	right	visual	right	visual	target	voice	375.422249374	FALSE	FALSE	FALSE	FALSE	FALSE	0	FALSE	FALSE	TRUE
p06	2015	07	14	16	13	m	21	l	3.36935926805	2	102	0.56824695901	0.976501898257	left	visual	right	tactile	target	voice	260.109379422	FALSE	FALSE	FALSE	FALSE	TRUE	0	FALSE	FALSE	TRUE
p06	2015	07	14	16	13	m	21	l	3.36935926805	2	103	0.676958889002	1.17434808826	left	visual	right	visual	target	voice	254.75226139	FALSE	FALSE	FALSE	FALSE	TRUE	0	FALSE	FALSE	TRUE
p06	2015	07	14	16	13	m	21	l	3.36935926805	2	104	0.510374615958	1.3420654871	left	visual	right	visual	target	voice	296.137778496	FALSE	FALSE	FALSE	FALSE	FALSE	0	FALSE	FALSE	TRUE
p06	2015	07	14	16	13	m	21	l	3.36935926805	2	105	0.565838497016	1.15795289096	right	tactile	left	visual	target	voice	401.493400685	FALSE	FALSE	FALSE	FALSE	FALSE	0	FALSE	FALSE	TRUE
p06	2015	07	14	16	13	m	21	l	3.36935926805	2	106	0.520255717041	0.891059649854	right	visual	right	tactile	target	voice	193.021805782	FALSE	FALSE	FALSE	FALSE	FALSE	0	FALSE	FALSE	TRUE
p06	2015	07	14	16	13	m	21	l	3.36935926805	2	107	0.403690956999	0.88357463502	left	visual	left	tactile	target	voice	NA	TRUE	FALSE	FALSE	FALSE	FALSE	0	FALSE	FALSE	FALSE
p06	2015	07	14	16	13	m	21	l	3.36935926805	2	108	0.456719517009	1.2000849167	right	tactile	right	tactile	target	voice	NA	TRUE	FALSE	FALSE	FALSE	FALSE	0	FALSE	FALSE	FALSE
p06	2015	07	14	16	13	m	21	l	3.36935926805	2	109	0.600975190988	0.908641069679	right	tactile	right	visual	target	voice	463.964613969	FALSE	FALSE	FALSE	FALSE	FALSE	0	FALSE	FALSE	TRUE
p06	2015	07	14	16	13	m	21	l	3.36935926805	2	110	0.443763602001	0.552190243397	left	visual	left	visual	target	voice	394.232625316	FALSE	FALSE	FALSE	FALSE	TRUE	0	FALSE	TRUE	TRUE
p06	2015	07	14	16	13	m	21	l	3.36935926805	2	111	0.409395248978	1.17113118464	left	tactile	left	visual	target	voice	NA	TRUE	FALSE	FALSE	FALSE	FALSE	0	FALSE	FALSE	FALSE
p06	2015	07	14	16	13	m	21	l	3.36935926805	2	112	0.70505451801	1.08706767603	right	tactile	left	visual	target	voice	292.90284263	FALSE	FALSE	FALSE	FALSE	TRUE	0	FALSE	TRUE	TRUE
p06	2015	07	14	16	13	m	21	l	3.36935926805	2	113	1.92574351205	1.14139234479	right	visual	right	visual	target	voice	242.666494916	FALSE	FALSE	FALSE	FALSE	TRUE	0	FALSE	FALSE	TRUE
p06	2015	07	14	16	13	m	21	l	3.36935926805	2	114	0.443780879024	1.23967922452	right	tactile	right	tactile	target	voice	244.776065112	FALSE	FALSE	FALSE	FALSE	FALSE	0	FALSE	FALSE	TRUE
p06	2015	07	14	16	13	m	21	l	3.36935926805	2	115	1.98357509903	0.72984286998	left	tactile	right	tactile	catch	NA	NA	FALSE	FALSE	FALSE	FALSE	TRUE	0	FALSE	FALSE	TRUE
p06	2015	07	14	16	13	m	21	l	3.36935926805	2	116	0.931479213003	1.08773895198	left	visual	right	visual	target	voice	190.479549754	FALSE	FALSE	FALSE	FALSE	FALSE	0	FALSE	FALSE	TRUE
p06	2015	07	14	16	13	m	21	l	3.36935926805	2	117	2.01881227898	0.793483253276	right	visual	left	visual	target	voice	318.849324423	FALSE	FALSE	FALSE	FALSE	TRUE	0	FALSE	TRUE	TRUE
p06	2015	07	14	16	13	m	21	l	3.36935926805	2	118	0.722727585002	1.2042379215	left	tactile	left	visual	target	voice	394.130760164	FALSE	FALSE	FALSE	FALSE	FALSE	0	FALSE	FALSE	TRUE
p06	2015	07	14	16	13	m	21	l	3.36935926805	2	119	0.643771611969	0.953492187689	left	tactile	left	visual	target	voice	319.903138035	FALSE	FALSE	FALSE	FALSE	TRUE	0	FALSE	FALSE	TRUE
p06	2015	07	14	16	13	m	21	l	3.36935926805	2	120	0.791866427986	1.0930425212	right	tactile	left	tactile	target	voice	364.555274427	FALSE	FALSE	FALSE	FALSE	TRUE	0	FALSE	FALSE	TRUE
p06	2015	07	14	16	13	m	21	l	9.16767706897	2	121	0.704972413019	0.866251670618	left	tactile	left	tactile	target	voice	343.211884028	FALSE	FALSE	FALSE	TRUE	FALSE	0	FALSE	FALSE	TRUE
p06	2015	07	14	16	13	m	21	l	9.16767706897	2	122	14.92664712	1.28213425947	right	tactile	right	visual	target	voice	356.784428179	FALSE	FALSE	FALSE	FALSE	TRUE	0	FALSE	FALSE	TRUE
p06	2015	07	14	16	13	m	21	l	9.16767706897	2	123	0.820398250013	0.994852933701	right	visual	right	visual	target	voice	225.697796966	FALSE	FALSE	FALSE	FALSE	FALSE	0	FALSE	FALSE	TRUE
p06	2015	07	14	16	13	m	21	l	9.16767706897	2	124	0.676721823984	1.03727566798	right	tactile	left	tactile	target	voice	250.156497699	FALSE	FALSE	FALSE	FALSE	FALSE	0	FALSE	FALSE	TRUE
p06	2015	07	14	16	13	m	21	l	9.16767706897	2	125	0.691426437988	1.05611998442	left	tactile	left	visual	target	voice	355.388444208	FALSE	FALSE	FALSE	FALSE	FALSE	0	FALSE	FALSE	TRUE
p06	2015	07	14	16	13	m	21	l	9.16767706897	2	126	0.650955341989	1.28963178574	left	visual	left	tactile	target	voice	216.920607898	FALSE	FALSE	FALSE	FALSE	FALSE	0	FALSE	FALSE	TRUE
p06	2015	07	14	16	13	m	21	l	9.16767706897	2	127	0.561296235013	1.41014401087	left	visual	left	visual	target	voice	330.737529788	FALSE	FALSE	FALSE	FALSE	FALSE	0	FALSE	FALSE	TRUE
p06	2015	07	14	16	13	m	21	l	9.16767706897	2	128	0.65251046	1.46634253599	right	visual	right	visual	target	voice	267.674615665	FALSE	FALSE	FALSE	FALSE	FALSE	0	FALSE	FALSE	TRUE
p06	2015	07	14	16	13	m	21	l	9.16767706897	2	129	0.470850495039	1.29788734994	right	tactile	right	tactile	target	voice	296.502839774	FALSE	FALSE	FALSE	FALSE	FALSE	0	FALSE	FALSE	TRUE
p06	2015	07	14	16	13	m	21	l	9.16767706897	2	130	0.576349315001	0.545284106829	left	tactile	right	tactile	target	voice	541.615789873	FALSE	FALSE	FALSE	FALSE	FALSE	0	FALSE	FALSE	TRUE
p06	2015	07	14	16	13	m	21	l	9.16767706897	2	131	0.490656414011	1.31932406034	right	visual	left	visual	target	voice	212.003587338	FALSE	FALSE	FALSE	FALSE	FALSE	0	FALSE	FALSE	TRUE
p06	2015	07	14	16	13	m	21	l	9.16767706897	2	132	0.495684901951	1.47070535429	left	visual	right	tactile	target	voice	185.071694374	FALSE	FALSE	FALSE	FALSE	TRUE	0	FALSE	FALSE	TRUE
p06	2015	07	14	16	13	m	21	l	9.16767706897	2	133	0.528044876002	0.585057831711	right	visual	right	tactile	target	voice	283.490489936	FALSE	FALSE	FALSE	FALSE	TRUE	0	FALSE	TRUE	TRUE
p06	2015	07	14	16	13	m	21	l	9.16767706897	2	134	0.430017208972	0.781619015627	right	visual	left	visual	target	voice	292.342395056	FALSE	FALSE	FALSE	FALSE	FALSE	0	FALSE	FALSE	TRUE
p06	2015	07	14	16	13	m	21	l	9.16767706897	2	135	0.472137532022	0.988891804733	left	tactile	right	visual	target	voice	319.964872964	FALSE	FALSE	FALSE	FALSE	FALSE	0	FALSE	FALSE	TRUE
p06	2015	07	14	16	13	m	21	l	9.16767706897	2	136	0.399836344004	1.49841109516	right	visual	left	tactile	target	voice	165.799294482	FALSE	FALSE	FALSE	FALSE	FALSE	0	FALSE	FALSE	TRUE
p06	2015	07	14	16	13	m	21	l	9.16767706897	2	137	0.416362621007	0.556524499867	left	visual	left	visual	target	voice	407.582386804	FALSE	FALSE	FALSE	FALSE	FALSE	0	FALSE	FALSE	TRUE
p06	2015	07	14	16	13	m	21	l	9.16767706897	2	138	1.21716592397	1.00805374857	left	tactile	left	visual	target	voice	252.122105099	FALSE	FALSE	FALSE	FALSE	TRUE	0	FALSE	FALSE	TRUE
p06	2015	07	14	16	13	m	21	l	9.16767706897	2	139	0.413209252991	0.85001226201	left	tactile	left	visual	target	voice	282.214990642	FALSE	FALSE	FALSE	FALSE	FALSE	0	FALSE	FALSE	TRUE
p06	2015	07	14	16	13	m	21	l	9.16767706897	2	140	1.24631081696	0.934489852376	right	tactile	right	visual	target	voice	410.605238285	FALSE	FALSE	FALSE	FALSE	TRUE	0	FALSE	FALSE	TRUE
p06	2015	07	14	16	13	m	21	l	9.16767706897	2	141	0.421378651983	1.44860983263	right	tactile	right	tactile	catch	voice	NA	TRUE	FALSE	FALSE	FALSE	FALSE	0	FALSE	FALSE	FALSE
p06	2015	07	14	16	13	m	21	l	9.16767706897	2	142	0.864295042993	0.672427426698	left	tactile	right	tactile	target	voice	470.772817964	FALSE	FALSE	FALSE	FALSE	FALSE	0	FALSE	FALSE	TRUE
p06	2015	07	14	16	13	m	21	l	9.16767706897	2	143	0.56593697198	0.623560465628	left	tactile	right	visual	target	voice	307.862287038	FALSE	FALSE	FALSE	FALSE	FALSE	0	FALSE	FALSE	TRUE
p06	2015	07	14	16	13	m	21	l	9.16767706897	2	144	0.415889669035	1.11858532037	right	visual	right	visual	target	voice	299.24861528	FALSE	FALSE	FALSE	FALSE	TRUE	0	FALSE	FALSE	TRUE
p06	2015	07	14	16	13	m	21	l	9.16767706897	2	145	0.44949092	0.541495035651	right	tactile	right	visual	target	voice	288.878343999	FALSE	FALSE	FALSE	FALSE	FALSE	0	FALSE	FALSE	TRUE
p06	2015	07	14	16	13	m	21	l	9.16767706897	2	146	0.416658283968	1.0265126999	left	tactile	left	tactile	catch	NA	NA	FALSE	FALSE	FALSE	FALSE	FALSE	0	FALSE	FALSE	TRUE
p06	2015	07	14	16	13	m	21	l	9.16767706897	2	147	0.634825438028	1.14463080089	left	visual	left	visual	target	voice	200.944169774	FALSE	FALSE	FALSE	FALSE	FALSE	0	FALSE	FALSE	TRUE
p06	2015	07	14	16	13	m	21	l	9.16767706897	2	148	0.417055846017	1.27269877758	left	tactile	left	tactile	target	voice	121.551908145	FALSE	FALSE	FALSE	FALSE	TRUE	0	FALSE	FALSE	TRUE
p06	2015	07	14	16	13	m	21	l	9.16767706897	2	149	0.40876309399	1.2362473275	right	tactile	left	visual	target	voice	308.330608183	FALSE	FALSE	FALSE	FALSE	TRUE	0	FALSE	FALSE	TRUE
p06	2015	07	14	16	13	m	21	l	9.16767706897	2	150	1.06252486102	0.965316825143	right	tactile	left	visual	target	voice	336.578205519	FALSE	FALSE	FALSE	FALSE	TRUE	0	FALSE	FALSE	TRUE
p06	2015	07	14	16	13	m	21	l	9.16767706897	2	151	0.409902437008	1.10733845742	right	tactile	right	tactile	target	voice	488.180701213	FALSE	FALSE	FALSE	FALSE	FALSE	0	FALSE	FALSE	TRUE
p06	2015	07	14	16	13	m	21	l	9.16767706897	2	152	0.566142269003	0.518589735974	left	visual	right	tactile	target	voice	247.218402685	FALSE	FALSE	FALSE	FALSE	FALSE	0	FALSE	FALSE	TRUE
p06	2015	07	14	16	13	m	21	l	9.16767706897	2	153	0.410809999041	0.625676936753	right	tactile	left	tactile	target	voice	286.506407894	FALSE	FALSE	FALSE	FALSE	FALSE	0	FALSE	FALSE	TRUE
p06	2015	07	14	16	13	m	21	l	9.16767706897	2	154	0.404807224986	0.843624869404	left	tactile	right	visual	target	voice	312.004243257	FALSE	FALSE	FALSE	FALSE	TRUE	0	FALSE	FALSE	TRUE
p06	2015	07	14	16	13	m	21	l	9.16767706897	2	155	1.15411868499	0.992818863618	left	visual	left	visual	target	voice	199.894510035	FALSE	FALSE	FALSE	FALSE	TRUE	0	FALSE	FALSE	TRUE
p06	2015	07	14	16	13	m	21	l	9.16767706897	2	156	0.45902585797	0.864534853464	left	tactile	left	tactile	target	NA	NA	FALSE	FALSE	FALSE	FALSE	FALSE	0	FALSE	FALSE	TRUE
p06	2015	07	14	16	13	m	21	l	9.16767706897	2	157	0.716547054006	0.865067046573	right	visual	right	tactile	target	voice	223.390730098	FALSE	FALSE	FALSE	FALSE	FALSE	0	FALSE	FALSE	TRUE
p06	2015	07	14	16	13	m	21	l	9.16767706897	2	158	1.84361885203	0.963322459122	left	visual	right	tactile	target	voice	205.578090507	FALSE	FALSE	FALSE	FALSE	FALSE	0	FALSE	FALSE	TRUE
p06	2015	07	14	16	13	m	21	l	9.16767706897	2	159	38.315263572	0.933562769749	left	tactile	right	tactile	target	voice	471.403173928	FALSE	FALSE	FALSE	TRUE	TRUE	0	FALSE	TRUE	TRUE
p06	2015	07	14	16	13	m	21	l	9.16767706897	2	160	70.7494786759	0.596430301022	left	tactile	left	tactile	target	voice	NA	TRUE	FALSE	FALSE	FALSE	FALSE	0	FALSE	FALSE	FALSE
p06	2015	07	14	16	13	m	21	l	50.882971958	3	1	0.93294868595	1.35832377299	left	visual	left	visual	target	voice	349.691269686	FALSE	FALSE	FALSE	FALSE	FALSE	0	FALSE	FALSE	TRUE
p06	2015	07	14	16	13	m	21	l	50.882971958	3	2	0.533643466013	1.20250258372	left	tactile	left	visual	target	voice	249.257270887	FALSE	FALSE	FALSE	FALSE	FALSE	0	FALSE	FALSE	TRUE
p06	2015	07	14	16	13	m	21	l	50.882971958	3	3	0.414016042021	0.548971721977	right	tactile	right	visual	target	voice	258.325159666	FALSE	FALSE	FALSE	FALSE	FALSE	0	FALSE	FALSE	TRUE
p06	2015	07	14	16	13	m	21	l	50.882971958	3	4	0.488609998021	1.38950665503	left	tactile	right	visual	target	voice	252.188614628	FALSE	FALSE	FALSE	FALSE	FALSE	0	FALSE	FALSE	TRUE
p06	2015	07	14	16	13	m	21	l	50.882971958	3	5	0.50129782001	1.27567026633	left	visual	right	visual	catch	NA	NA	FALSE	FALSE	FALSE	FALSE	TRUE	0	FALSE	FALSE	TRUE
p06	2015	07	14	16	13	m	21	l	50.882971958	3	6	0.794587546028	1.11783315859	right	tactile	left	visual	target	voice	254.243388074	FALSE	FALSE	FALSE	FALSE	FALSE	0	FALSE	FALSE	TRUE
p06	2015	07	14	16	13	m	21	l	50.882971958	3	7	0.466690542991	1.3361912998	left	visual	right	tactile	target	voice	224.727869907	FALSE	FALSE	FALSE	FALSE	FALSE	0	FALSE	FALSE	TRUE
p06	2015	07	14	16	13	m	21	l	50.882971958	3	8	1.53264970699	1.25562392502	left	tactile	left	tactile	catch	NA	NA	FALSE	FALSE	FALSE	FALSE	TRUE	0	FALSE	FALSE	TRUE
p06	2015	07	14	16	13	m	21	l	50.882971958	3	9	0.526706291945	0.631367976758	right	visual	right	visual	target	voice	297.389492858	FALSE	FALSE	FALSE	FALSE	FALSE	0	FALSE	FALSE	TRUE
p06	2015	07	14	16	13	m	21	l	50.882971958	3	10	0.437715056993	1.1064865601	right	visual	left	tactile	target	voice	289.790002629	FALSE	FALSE	FALSE	FALSE	FALSE	0	FALSE	FALSE	TRUE
p06	2015	07	14	16	13	m	21	l	50.882971958	3	11	0.419127124012	0.850013024203	right	visual	left	visual	catch	NA	NA	FALSE	FALSE	FALSE	FALSE	FALSE	0	FALSE	FALSE	TRUE
p06	2015	07	14	16	13	m	21	l	50.882971958	3	12	1.09013692202	1.03329795723	left	tactile	right	visual	target	voice	217.227654415	FALSE	FALSE	FALSE	FALSE	FALSE	0	FALSE	FALSE	TRUE
p06	2015	07	14	16	13	m	21	l	50.882971958	3	13	0.430203083029	1.48128022286	left	visual	right	visual	target	voice	194.859497773	FALSE	FALSE	FALSE	FALSE	FALSE	0	FALSE	FALSE	TRUE
p06	2015	07	14	16	13	m	21	l	50.882971958	3	14	0.493107671966	0.937350893367	left	tactile	left	tactile	target	voice	499.522268248	FALSE	FALSE	FALSE	FALSE	FALSE	0	FALSE	FALSE	TRUE
p06	2015	07	14	16	13	m	21	l	50.882971958	3	15	0.404553400003	1.19030332996	right	tactile	right	tactile	target	voice	221.403104719	FALSE	FALSE	FALSE	FALSE	FALSE	0	FALSE	FALSE	TRUE
p06	2015	07	14	16	13	m	21	l	50.882971958	3	16	1.26228694897	1.28714804545	right	tactile	right	visual	target	voice	275.171584217	FALSE	FALSE	FALSE	FALSE	FALSE	0	FALSE	FALSE	TRUE
p06	2015	07	14	16	13	m	21	l	50.882971958	3	17	0.458151325001	0.986672239176	left	visual	right	visual	target	voice	218.711843481	FALSE	FALSE	FALSE	FALSE	TRUE	0	FALSE	FALSE	TRUE
p06	2015	07	14	16	13	m	21	l	50.882971958	3	18	0.420495662023	0.79205333052	left	tactile	right	tactile	target	voice	191.167726123	FALSE	FALSE	FALSE	FALSE	TRUE	0	FALSE	FALSE	TRUE
p06	2015	07	14	16	13	m	21	l	50.882971958	3	19	0.413668947003	1.32488207225	left	visual	left	tactile	target	voice	216.930793424	FALSE	FALSE	FALSE	FALSE	FALSE	0	FALSE	FALSE	TRUE
p06	2015	07	14	16	13	m	21	l	50.882971958	3	20	0.501400406996	0.712425657362	right	visual	left	visual	target	voice	227.277670288	FALSE	FALSE	FALSE	FALSE	FALSE	0	FALSE	FALSE	TRUE
p06	2015	07	14	16	13	m	21	l	50.882971958	3	21	0.403790683951	1.0084447503	right	visual	right	tactile	target	voice	NA	TRUE	FALSE	FALSE	FALSE	FALSE	0	FALSE	FALSE	FALSE
p06	2015	07	14	16	13	m	21	l	50.882971958	3	22	0.667994338961	1.12252304001	left	visual	left	visual	target	voice	229.748559708	FALSE	FALSE	FALSE	FALSE	TRUE	0	FALSE	FALSE	TRUE
p06	2015	07	14	16	13	m	21	l	50.882971958	3	23	0.40881677001	0.630465401943	right	tactile	left	visual	target	voice	216.442031728	FALSE	FALSE	FALSE	FALSE	TRUE	0	FALSE	FALSE	TRUE
p06	2015	07	14	16	13	m	21	l	50.882971958	3	24	0.408782195998	0.869586178981	right	visual	right	visual	target	voice	278.007540677	FALSE	FALSE	FALSE	FALSE	FALSE	0	FALSE	FALSE	TRUE
p06	2015	07	14	16	13	m	21	l	50.882971958	3	25	0.524847374007	0.967584441529	right	visual	right	tactile	target	voice	211.520656187	FALSE	FALSE	FALSE	FALSE	FALSE	0	FALSE	FALSE	TRUE
p06	2015	07	14	16	13	m	21	l	50.882971958	3	26	0.418504919042	1.34672043817	left	visual	left	tactile	target	voice	183.171996498	FALSE	FALSE	FALSE	FALSE	FALSE	0	FALSE	FALSE	TRUE
p06	2015	07	14	16	13	m	21	l	50.882971958	3	27	0.447454092966	0.719374256979	right	tactile	left	visual	catch	NA	NA	FALSE	FALSE	FALSE	FALSE	TRUE	0	FALSE	FALSE	TRUE
p06	2015	07	14	16	13	m	21	l	50.882971958	3	28	1.200250683	0.752705534093	left	tactile	left	visual	target	voice	320.289752563	FALSE	FALSE	FALSE	FALSE	FALSE	0	FALSE	FALSE	TRUE
p06	2015	07	14	16	13	m	21	l	50.882971958	3	29	0.400469035027	0.726921277759	left	tactile	right	visual	target	voice	235.827275901	FALSE	FALSE	FALSE	FALSE	FALSE	0	FALSE	FALSE	TRUE
p06	2015	07	14	16	13	m	21	l	50.882971958	3	30	0.521897356026	0.902162150879	right	visual	left	visual	target	voice	200.118918729	FALSE	FALSE	FALSE	FALSE	FALSE	0	FALSE	FALSE	TRUE
p06	2015	07	14	16	13	m	21	l	50.882971958	3	31	0.41136678902	1.43265336188	left	tactile	left	visual	target	voice	219.890845823	FALSE	FALSE	FALSE	FALSE	TRUE	0	FALSE	FALSE	TRUE
p06	2015	07	14	16	13	m	21	l	50.882971958	3	32	0.94953083602	1.35558734558	right	tactile	left	visual	target	voice	204.368924024	FALSE	FALSE	FALSE	FALSE	FALSE	0	FALSE	FALSE	TRUE
p06	2015	07	14	16	13	m	21	l	50.882971958	3	33	0.408661708003	0.815305170767	left	visual	left	visual	target	voice	214.057830861	FALSE	FALSE	FALSE	FALSE	FALSE	0	FALSE	FALSE	TRUE
p06	2015	07	14	16	13	m	21	l	50.882971958	3	34	0.406699931016	1.34339402988	left	visual	left	visual	target	voice	358.431403758	FALSE	FALSE	FALSE	FALSE	FALSE	0	FALSE	FALSE	TRUE
p06	2015	07	14	16	13	m	21	l	50.882971958	3	35	0.395795596996	1.21442570807	right	tactile	left	visual	target	voice	239.024389593	FALSE	FALSE	FALSE	FALSE	FALSE	0	FALSE	FALSE	TRUE
p06	2015	07	14	16	13	m	21	l	50.882971958	3	36	1.345248834	1.14284339983	right	visual	right	tactile	target	voice	141.34037582	FALSE	FALSE	FALSE	FALSE	FALSE	0	FALSE	FALSE	TRUE
p06	2015	07	14	16	13	m	21	l	50.882971958	3	37	0.62502609595	1.4737145895	left	tactile	right	tactile	target	voice	64.8597961408	FALSE	FALSE	FALSE	FALSE	TRUE	0	FALSE	FALSE	TRUE
p06	2015	07	14	16	13	m	21	l	50.882971958	3	38	0.479432977038	1.27660964775	left	tactile	right	tactile	target	voice	179.917612928	FALSE	FALSE	FALSE	FALSE	TRUE	0	FALSE	FALSE	TRUE
p06	2015	07	14	16	13	m	21	l	50.882971958	3	39	0.467620937969	0.710452100497	right	tactile	left	tactile	target	voice	203.310993151	FALSE	FALSE	FALSE	FALSE	TRUE	0	FALSE	TRUE	TRUE
p06	2015	07	14	16	13	m	21	l	50.882971958	3	40	3.92394634796	1.0563552026	right	tactile	right	tactile	catch	NA	NA	FALSE	FALSE	FALSE	FALSE	TRUE	0	FALSE	TRUE	TRUE
p06	2015	07	14	16	13	m	21	l	3.09513223998	3	41	0.744160239003	1.33091991795	left	tactile	left	tactile	target	voice	318.446488702	FALSE	FALSE	FALSE	FALSE	FALSE	0	FALSE	FALSE	TRUE
p06	2015	07	14	16	13	m	21	l	3.09513223998	3	42	0.450784288987	0.519943107213	left	visual	right	visual	target	voice	214.551102486	FALSE	FALSE	FALSE	FALSE	FALSE	0	FALSE	FALSE	TRUE
p06	2015	07	14	16	13	m	21	l	3.09513223998	3	43	0.603118585015	0.943236915618	right	tactile	left	visual	target	voice	224.471261026	FALSE	FALSE	FALSE	FALSE	FALSE	0	FALSE	FALSE	TRUE
p06	2015	07	14	16	13	m	21	l	3.09513223998	3	44	0.412363941956	1.42538495664	right	visual	right	tactile	target	voice	239.364746027	FALSE	FALSE	FALSE	FALSE	FALSE	0	FALSE	FALSE	TRUE
p06	2015	07	14	16	13	m	21	l	3.09513223998	3	45	0.475123187003	0.888809960814	right	tactile	right	visual	target	voice	186.701115861	FALSE	FALSE	FALSE	FALSE	FALSE	0	FALSE	FALSE	TRUE
p06	2015	07	14	16	13	m	21	l	3.09513223998	3	46	0.421302834002	1.03565097755	right	visual	right	tactile	target	voice	157.716249058	FALSE	FALSE	FALSE	FALSE	FALSE	0	FALSE	FALSE	TRUE
p06	2015	07	14	16	13	m	21	l	3.09513223998	3	47	0.483282869973	1.23805758151	left	visual	right	visual	target	voice	201.736151124	FALSE	FALSE	FALSE	FALSE	FALSE	0	FALSE	FALSE	TRUE
p06	2015	07	14	16	13	m	21	l	3.09513223998	3	48	4.580015663	0.680309560665	left	visual	right	visual	target	voice	181.800000952	FALSE	FALSE	FALSE	FALSE	FALSE	0	FALSE	FALSE	TRUE
p06	2015	07	14	16	13	m	21	l	3.09513223998	3	49	0.418269178015	1.26780430871	right	visual	left	visual	target	voice	224.959355895	FALSE	FALSE	FALSE	FALSE	TRUE	0	FALSE	TRUE	TRUE
p06	2015	07	14	16	13	m	21	l	3.09513223998	3	50	0.43221939198	1.21086343083	right	tactile	right	tactile	target	voice	65.1045528357	FALSE	FALSE	FALSE	FALSE	FALSE	0	FALSE	FALSE	TRUE
p06	2015	07	14	16	13	m	21	l	3.09513223998	3	51	0.514184335014	0.721586671589	right	visual	left	tactile	target	voice	178.210853075	FALSE	FALSE	FALSE	FALSE	TRUE	0	FALSE	TRUE	TRUE
p06	2015	07	14	16	13	m	21	l	3.09513223998	3	52	0.474730627029	1.46855420369	left	tactile	right	tactile	catch	voice	96.7548639746	FALSE	FALSE	FALSE	FALSE	TRUE	0	FALSE	FALSE	TRUE
p06	2015	07	14	16	13	m	21	l	3.09513223998	3	53	1.57623826503	0.556666668251	left	visual	left	tactile	target	voice	203.907964402	FALSE	FALSE	FALSE	FALSE	FALSE	0	FALSE	FALSE	TRUE
p06	2015	07	14	16	13	m	21	l	3.09513223998	3	54	0.476001253002	0.992638121369	right	visual	right	tactile	target	voice	195.264846319	FALSE	FALSE	FALSE	FALSE	FALSE	0	FALSE	FALSE	TRUE
p06	2015	07	14	16	13	m	21	l	3.09513223998	3	55	0.412948349025	0.598262565941	left	tactile	left	visual	target	voice	220.705349697	FALSE	FALSE	FALSE	FALSE	FALSE	0	FALSE	FALSE	TRUE
p06	2015	07	14	16	13	m	21	l	3.09513223998	3	56	0.407849930984	0.673498184917	left	tactile	right	visual	target	voice	234.000138706	FALSE	FALSE	FALSE	FALSE	FALSE	0	FALSE	FALSE	TRUE
p06	2015	07	14	16	13	m	21	l	3.09513223998	3	57	0.419955460995	1.13237576142	right	tactile	left	tactile	target	voice	NA	TRUE	FALSE	FALSE	FALSE	FALSE	0	FALSE	FALSE	FALSE
p06	2015	07	14	16	13	m	21	l	3.09513223998	3	58	0.821141013992	1.14055694447	right	tactile	right	tactile	target	voice	381.021111214	FALSE	FALSE	FALSE	FALSE	FALSE	0	FALSE	FALSE	TRUE
p06	2015	07	14	16	13	m	21	l	3.09513223998	3	59	0.540747640014	0.6146911654	left	tactile	right	visual	target	voice	284.473773267	FALSE	FALSE	FALSE	FALSE	FALSE	0	FALSE	FALSE	TRUE
p06	2015	07	14	16	13	m	21	l	3.09513223998	3	60	0.402506412996	1.32763244086	left	visual	left	tactile	catch	NA	NA	FALSE	FALSE	FALSE	FALSE	TRUE	0	FALSE	TRUE	TRUE
p06	2015	07	14	16	13	m	21	l	3.09513223998	3	61	0.607570544002	1.46857825635	left	visual	right	tactile	target	voice	NA	TRUE	FALSE	FALSE	FALSE	TRUE	0	FALSE	FALSE	FALSE
p06	2015	07	14	16	13	m	21	l	3.09513223998	3	62	0.999929382	0.52361477867	right	tactile	right	tactile	target	voice	373.60072002	FALSE	FALSE	FALSE	FALSE	FALSE	0	FALSE	FALSE	TRUE
p06	2015	07	14	16	13	m	21	l	3.09513223998	3	63	0.696134781989	0.697148656029	left	visual	left	visual	target	voice	306.768852635	FALSE	FALSE	FALSE	FALSE	FALSE	0	FALSE	FALSE	TRUE
p06	2015	07	14	16	13	m	21	l	3.09513223998	3	64	0.405007869995	0.844681336478	left	tactile	right	tactile	target	voice	127.874437196	FALSE	FALSE	FALSE	FALSE	TRUE	0	FALSE	TRUE	TRUE
p06	2015	07	14	16	13	m	21	l	3.09513223998	3	65	0.400982716994	1.34311435823	left	tactile	left	visual	target	voice	271.156633447	FALSE	FALSE	FALSE	FALSE	TRUE	0	FALSE	TRUE	TRUE
p06	2015	07	14	16	13	m	21	l	3.09513223998	3	66	0.414374931017	1.12114763118	left	visual	left	visual	target	voice	227.296830504	FALSE	FALSE	FALSE	FALSE	TRUE	0	FALSE	TRUE	TRUE
p06	2015	07	14	16	13	m	21	l	3.09513223998	3	67	1.44783720805	0.789872396108	left	visual	left	tactile	target	voice	153.929052583	FALSE	FALSE	FALSE	FALSE	TRUE	0	FALSE	FALSE	TRUE
p06	2015	07	14	16	13	m	21	l	3.09513223998	3	68	0.462447915983	0.506717534014	left	visual	right	tactile	target	voice	152.717248595	FALSE	FALSE	FALSE	FALSE	FALSE	0	FALSE	FALSE	TRUE
p06	2015	07	14	16	13	m	21	l	3.09513223998	3	69	0.409096984018	1.33181427824	left	tactile	left	tactile	target	voice	NA	TRUE	FALSE	FALSE	FALSE	FALSE	0	FALSE	FALSE	FALSE
p06	2015	07	14	16	13	m	21	l	3.09513223998	3	70	0.403199878987	0.83170874036	right	tactile	right	visual	target	voice	357.873895322	FALSE	FALSE	FALSE	FALSE	TRUE	0	FALSE	FALSE	TRUE
p06	2015	07	14	16	13	m	21	l	3.09513223998	3	71	0.397308639018	0.603017003127	right	tactile	right	tactile	target	voice	191.47545757	FALSE	FALSE	FALSE	FALSE	FALSE	0	FALSE	FALSE	TRUE
p06	2015	07	14	16	13	m	21	l	3.09513223998	3	72	0.424143693992	1.10141723754	left	tactile	right	visual	target	voice	69.5722760865	FALSE	FALSE	FALSE	FALSE	FALSE	0	FALSE	FALSE	TRUE
p06	2015	07	14	16	13	m	21	l	3.09513223998	3	73	0.409385157051	1.35299074645	right	tactile	right	visual	target	voice	240.077333176	FALSE	FALSE	FALSE	FALSE	TRUE	0	FALSE	FALSE	TRUE
p06	2015	07	14	16	13	m	21	l	3.09513223998	3	74	1.007214938	1.29882035179	right	visual	left	tactile	catch	voice	240.469785931	FALSE	FALSE	FALSE	FALSE	FALSE	0	FALSE	FALSE	TRUE
p06	2015	07	14	16	13	m	21	l	3.09513223998	3	75	0.409495991014	0.693222384511	left	tactile	left	tactile	target	voice	148.681441206	FALSE	FALSE	FALSE	FALSE	FALSE	0	FALSE	FALSE	TRUE
p06	2015	07	14	16	13	m	21	l	3.09513223998	3	76	0.540452430025	1.39315054885	left	visual	right	tactile	catch	voice	NA	TRUE	FALSE	FALSE	FALSE	FALSE	0	FALSE	FALSE	FALSE
p06	2015	07	14	16	13	m	21	l	3.09513223998	3	77	0.669044755981	1.20411508383	right	visual	left	visual	target	voice	279.007903824	FALSE	FALSE	FALSE	FALSE	TRUE	0	FALSE	TRUE	TRUE
p06	2015	07	14	16	13	m	21	l	3.09513223998	3	78	0.403509390017	0.574174937824	left	visual	left	tactile	target	voice	197.1884378	FALSE	FALSE	FALSE	FALSE	FALSE	0	FALSE	FALSE	TRUE
p06	2015	07	14	16	13	m	21	l	3.09513223998	3	79	0.415515585046	0.75803303852	right	tactile	left	visual	target	voice	80.1205911557	FALSE	FALSE	FALSE	FALSE	TRUE	0	FALSE	TRUE	TRUE
p06	2015	07	14	16	13	m	21	l	3.09513223998	3	80	0.40175136202	1.47476489321	right	tactile	right	tactile	target	voice	479.503548413	FALSE	FALSE	FALSE	FALSE	TRUE	0	FALSE	TRUE	TRUE
p06	2015	07	14	16	13	m	21	l	2.71707302902	3	81	0.715966609016	0.855734505962	left	tactile	right	visual	catch	NA	NA	FALSE	FALSE	FALSE	FALSE	TRUE	0	FALSE	TRUE	TRUE
p06	2015	07	14	16	13	m	21	l	2.71707302902	3	82	0.552037593967	1.44499937416	right	tactile	right	visual	catch	NA	NA	FALSE	FALSE	FALSE	FALSE	FALSE	0	FALSE	FALSE	TRUE
p06	2015	07	14	16	13	m	21	l	2.71707302902	3	83	0.670713943022	1.1001021428	right	tactile	left	tactile	catch	NA	NA	FALSE	FALSE	FALSE	FALSE	FALSE	0	FALSE	FALSE	TRUE
p06	2015	07	14	16	13	m	21	l	2.71707302902	3	84	3.17230067099	0.521597931442	left	tactile	right	tactile	target	voice	346.745832183	FALSE	FALSE	FALSE	FALSE	FALSE	0	FALSE	FALSE	TRUE
p06	2015	07	14	16	13	m	21	l	2.71707302902	3	85	0.401999377995	0.696646989878	right	visual	left	tactile	target	voice	188.635139726	FALSE	FALSE	FALSE	FALSE	TRUE	0	FALSE	TRUE	TRUE
p06	2015	07	14	16	13	m	21	l	2.71707302902	3	86	0.397022421996	0.595613873973	right	tactile	left	tactile	target	voice	155.449314683	FALSE	FALSE	FALSE	FALSE	FALSE	0	FALSE	FALSE	TRUE
p06	2015	07	14	16	13	m	21	l	2.71707302902	3	87	0.412633542961	0.661539025727	left	visual	left	tactile	target	voice	153.412181942	FALSE	FALSE	FALSE	FALSE	FALSE	0	FALSE	FALSE	TRUE
p06	2015	07	14	16	13	m	21	l	2.71707302902	3	88	0.426972972986	0.865275504643	right	visual	right	tactile	catch	voice	NA	TRUE	FALSE	FALSE	FALSE	FALSE	0	FALSE	FALSE	FALSE
p06	2015	07	14	16	13	m	21	l	2.71707302902	3	89	0.459456150013	0.797464576047	left	tactile	right	tactile	target	voice	6.16501166951	FALSE	FALSE	FALSE	FALSE	FALSE	0	FALSE	FALSE	TRUE
p06	2015	07	14	16	13	m	21	l	2.71707302902	3	90	0.632447804033	0.907364234062	right	visual	left	tactile	target	voice	301.608199661	FALSE	FALSE	FALSE	FALSE	FALSE	0	FALSE	FALSE	TRUE
p06	2015	07	14	16	13	m	21	l	2.71707302902	3	91	1.23149023799	1.29658507092	left	tactile	left	tactile	target	voice	235.537652741	FALSE	FALSE	FALSE	FALSE	TRUE	0	FALSE	FALSE	TRUE
p06	2015	07	14	16	13	m	21	l	2.71707302902	3	92	0.409783473995	0.687747614681	right	visual	right	visual	target	voice	267.658678989	FALSE	FALSE	FALSE	FALSE	FALSE	0	FALSE	FALSE	TRUE
p06	2015	07	14	16	13	m	21	l	2.71707302902	3	93	0.392386807012	0.785052306732	left	visual	right	tactile	target	voice	212.045792898	FALSE	FALSE	FALSE	FALSE	TRUE	0	FALSE	TRUE	TRUE
p06	2015	07	14	16	13	m	21	l	2.71707302902	3	94	0.406731753959	0.533041632217	left	tactile	right	visual	target	voice	274.943699478	FALSE	FALSE	FALSE	FALSE	FALSE	0	FALSE	FALSE	TRUE
p06	2015	07	14	16	13	m	21	l	2.71707302902	3	95	0.420180084999	0.918815563924	right	visual	left	visual	target	voice	NA	TRUE	FALSE	FALSE	FALSE	FALSE	0	FALSE	FALSE	FALSE
p06	2015	07	14	16	13	m	21	l	2.71707302902	3	96	0.740619260992	1.02786664369	right	visual	right	visual	target	voice	340.738242958	FALSE	FALSE	FALSE	FALSE	FALSE	0	FALSE	FALSE	TRUE
p06	2015	07	14	16	13	m	21	l	2.71707302902	3	97	0.409397609008	0.527282283899	right	visual	right	tactile	target	voice	207.36426377	FALSE	FALSE	FALSE	FALSE	TRUE	0	FALSE	TRUE	TRUE
p06	2015	07	14	16	13	m	21	l	2.71707302902	3	98	0.408117301995	0.974309788134	left	tactile	left	visual	target	voice	283.320152492	FALSE	FALSE	FALSE	FALSE	TRUE	0	FALSE	FALSE	TRUE
p06	2015	07	14	16	13	m	21	l	2.71707302902	3	99	0.401627972024	0.920872702079	left	tactile	left	visual	catch	NA	NA	FALSE	FALSE	FALSE	FALSE	TRUE	0	FALSE	TRUE	TRUE
p06	2015	07	14	16	13	m	21	l	2.71707302902	3	100	0.514261163014	1.14141722526	left	visual	left	tactile	target	voice	303.803597461	FALSE	FALSE	FALSE	FALSE	FALSE	0	FALSE	FALSE	TRUE
p06	2015	07	14	16	13	m	21	l	2.71707302902	3	101	1.551169171	1.16481383592	left	visual	left	tactile	target	voice	286.625270732	FALSE	FALSE	FALSE	FALSE	FALSE	0	FALSE	FALSE	TRUE
p06	2015	07	14	16	13	m	21	l	2.71707302902	3	102	4.97160093999	0.62184726219	left	tactile	left	tactile	target	voice	298.590331455	FALSE	FALSE	FALSE	FALSE	TRUE	0	FALSE	FALSE	TRUE
p06	2015	07	14	16	13	m	21	l	2.71707302902	3	103	0.60412807198	0.584383634252	right	visual	right	visual	target	voice	234.799384372	FALSE	FALSE	FALSE	FALSE	FALSE	0	FALSE	FALSE	TRUE
p06	2015	07	14	16	13	m	21	l	2.71707302902	3	104	1.72405332001	1.2307432305	left	visual	right	tactile	target	voice	166.206044203	FALSE	FALSE	FALSE	FALSE	FALSE	0	FALSE	FALSE	TRUE
p06	2015	07	14	16	13	m	21	l	2.71707302902	3	105	0.947657470999	0.79724292806	right	tactile	left	tactile	target	voice	236.965880613	FALSE	FALSE	FALSE	FALSE	FALSE	0	FALSE	FALSE	TRUE
p06	2015	07	14	16	13	m	21	l	2.71707302902	3	106	0.642717060982	1.28230280031	right	visual	left	tactile	target	voice	54.8180923215	FALSE	FALSE	FALSE	FALSE	FALSE	0	FALSE	FALSE	TRUE
p06	2015	07	14	16	13	m	21	l	2.71707302902	3	107	0.737061742984	0.778886366037	left	visual	right	tactile	target	voice	100.561911648	FALSE	FALSE	FALSE	FALSE	TRUE	0	FALSE	TRUE	TRUE
p06	2015	07	14	16	13	m	21	l	2.71707302902	3	108	0.768686360971	1.14479894976	right	visual	left	tactile	target	voice	201.36286685	FALSE	FALSE	FALSE	FALSE	TRUE	0	FALSE	FALSE	TRUE
p06	2015	07	14	16	13	m	21	l	2.71707302902	3	109	0.604294141987	1.42552213392	left	visual	right	tactile	target	voice	59.027270705	FALSE	FALSE	FALSE	FALSE	FALSE	0	FALSE	FALSE	TRUE
p06	2015	07	14	16	13	m	21	l	2.71707302902	3	110	0.672318714962	1.38390796951	left	visual	right	visual	target	voice	249.569623149	FALSE	FALSE	FALSE	FALSE	FALSE	0	FALSE	FALSE	TRUE
p06	2015	07	14	16	13	m	21	l	2.71707302902	3	111	0.673712157004	1.41284874166	right	tactile	left	tactile	target	voice	94.3404890131	FALSE	FALSE	FALSE	FALSE	TRUE	0	FALSE	FALSE	TRUE
p06	2015	07	14	16	13	m	21	l	2.71707302902	3	112	0.527152754017	1.04452250388	right	visual	right	tactile	target	voice	219.019515847	FALSE	FALSE	FALSE	FALSE	TRUE	0	FALSE	TRUE	TRUE
p06	2015	07	14	16	13	m	21	l	2.71707302902	3	113	0.407209947996	0.641560880823	right	tactile	right	visual	target	voice	311.178738833	FALSE	FALSE	FALSE	FALSE	FALSE	0	FALSE	FALSE	TRUE
p06	2015	07	14	16	13	m	21	l	2.71707302902	3	114	2.535617624	0.831427743544	left	visual	left	visual	target	voice	109.169024101	FALSE	FALSE	FALSE	FALSE	TRUE	0	FALSE	FALSE	TRUE
p06	2015	07	14	16	13	m	21	l	2.71707302902	3	115	0.679638928967	0.800686775704	left	visual	left	visual	target	voice	36.7489169585	FALSE	FALSE	FALSE	FALSE	FALSE	0	FALSE	FALSE	TRUE
p06	2015	07	14	16	13	m	21	l	2.71707302902	3	116	0.867996237997	1.46727216566	right	tactile	left	visual	target	voice	NA	TRUE	FALSE	FALSE	FALSE	FALSE	0	FALSE	FALSE	FALSE
p06	2015	07	14	16	13	m	21	l	2.71707302902	3	117	1.28195413301	1.2179837937	left	visual	left	tactile	target	voice	241.305886011	FALSE	FALSE	FALSE	FALSE	FALSE	0	FALSE	FALSE	TRUE
p06	2015	07	14	16	13	m	21	l	2.71707302902	3	118	0.413598396	0.667543546861	right	tactile	left	visual	target	voice	23.275631771	FALSE	FALSE	FALSE	FALSE	FALSE	0	FALSE	FALSE	TRUE
p06	2015	07	14	16	13	m	21	l	2.71707302902	3	119	0.764224412967	1.32330876711	right	visual	left	tactile	target	voice	188.77468654	FALSE	FALSE	FALSE	FALSE	FALSE	0	FALSE	FALSE	TRUE
p06	2015	07	14	16	13	m	21	l	2.71707302902	3	120	0.562179615023	0.886284324722	right	tactile	left	visual	target	voice	36.185390898	FALSE	FALSE	FALSE	FALSE	TRUE	0	FALSE	TRUE	TRUE
p06	2015	07	14	16	13	m	21	l	6.47989259998	3	121	0.612643191998	1.33276641012	right	visual	left	tactile	target	voice	192.695881531	FALSE	FALSE	FALSE	FALSE	FALSE	0	FALSE	FALSE	TRUE
p06	2015	07	14	16	13	m	21	l	6.47989259998	3	122	0.463949183992	0.551967985265	right	visual	left	visual	target	voice	214.387124346	FALSE	FALSE	FALSE	FALSE	FALSE	0	FALSE	FALSE	TRUE
p06	2015	07	14	16	13	m	21	l	6.47989259998	3	123	1.34741057002	1.11091492833	left	tactile	left	visual	target	voice	240.830161318	FALSE	FALSE	FALSE	FALSE	TRUE	0	FALSE	FALSE	TRUE
p06	2015	07	14	16	13	m	21	l	6.47989259998	3	124	66.226664728	0.507943248624	left	visual	left	visual	target	voice	NA	TRUE	FALSE	FALSE	FALSE	FALSE	0	FALSE	FALSE	FALSE
p06	2015	07	14	16	13	m	21	l	6.47989259998	3	125	0.802494421019	1.09287947889	right	tactile	left	tactile	target	voice	NA	TRUE	FALSE	FALSE	FALSE	FALSE	0	FALSE	FALSE	FALSE
p06	2015	07	14	16	13	m	21	l	6.47989259998	3	126	0.596411002974	0.635946431726	right	visual	right	visual	target	NA	NA	FALSE	FALSE	FALSE	FALSE	TRUE	0	FALSE	TRUE	TRUE
p06	2015	07	14	16	13	m	21	l	6.47989259998	3	127	0.417045978014	1.25024584368	right	tactile	left	tactile	target	voice	NA	TRUE	FALSE	FALSE	FALSE	FALSE	0	FALSE	FALSE	FALSE
p06	2015	07	14	16	13	m	21	l	6.47989259998	3	128	1.28758269502	0.982606906351	right	tactile	right	visual	target	voice	163.777723326	FALSE	FALSE	FALSE	FALSE	FALSE	0	FALSE	FALSE	TRUE
p06	2015	07	14	16	13	m	21	l	6.47989259998	3	129	1.41120301903	1.23151708225	left	visual	right	tactile	target	voice	190.556877409	FALSE	FALSE	FALSE	FALSE	TRUE	0	FALSE	FALSE	TRUE
p06	2015	07	14	16	13	m	21	l	6.47989259998	3	130	0.462953364011	1.35745671096	left	tactile	left	visual	target	voice	NA	TRUE	FALSE	FALSE	FALSE	FALSE	0	FALSE	FALSE	FALSE
p06	2015	07	14	16	13	m	21	l	6.47989259998	3	131	0.778974229994	0.667928487806	left	visual	right	tactile	target	voice	228.18257584	FALSE	FALSE	FALSE	FALSE	FALSE	0	FALSE	FALSE	TRUE
p06	2015	07	14	16	13	m	21	l	6.47989259998	3	132	11.100965037	0.731794127016	right	visual	right	visual	target	voice	575.743356603	FALSE	FALSE	FALSE	FALSE	FALSE	0	FALSE	FALSE	TRUE
p06	2015	07	14	16	13	m	21	l	6.47989259998	3	133	3.41357944201	0.560157872867	left	tactile	right	tactile	target	voice	387.710132811	FALSE	FALSE	FALSE	FALSE	FALSE	0	FALSE	FALSE	TRUE
p06	2015	07	14	16	13	m	21	l	6.47989259998	3	134	0.714132596971	1.02177284097	left	visual	right	visual	target	voice	285.570041626	FALSE	FALSE	FALSE	FALSE	FALSE	0	FALSE	FALSE	TRUE
p06	2015	07	14	16	13	m	21	l	6.47989259998	3	135	0.446161769971	0.916572222108	right	visual	right	visual	target	voice	254.522428615	FALSE	FALSE	FALSE	FALSE	FALSE	0	FALSE	FALSE	TRUE
p06	2015	07	14	16	13	m	21	l	6.47989259998	3	136	0.621379569988	0.944615173819	right	tactile	right	visual	target	voice	214.976619871	FALSE	FALSE	FALSE	FALSE	FALSE	0	FALSE	FALSE	TRUE
p06	2015	07	14	16	13	m	21	l	6.47989259998	3	137	0.565769939974	0.968105839826	right	visual	right	tactile	target	voice	197.333146876	FALSE	FALSE	FALSE	FALSE	FALSE	0	FALSE	FALSE	TRUE
p06	2015	07	14	16	13	m	21	l	6.47989259998	3	138	0.506336222985	1.08348682498	left	visual	left	visual	catch	voice	NA	TRUE	FALSE	FALSE	FALSE	FALSE	0	FALSE	FALSE	FALSE
p06	2015	07	14	16	13	m	21	l	6.47989259998	3	139	0.70777881	0.61997864644	left	tactile	left	tactile	target	voice	223.24301122	FALSE	FALSE	FALSE	FALSE	FALSE	0	FALSE	FALSE	TRUE
p06	2015	07	14	16	13	m	21	l	6.47989259998	3	140	0.576197132003	0.711511808381	left	tactile	left	visual	target	voice	345.590883226	FALSE	FALSE	FALSE	FALSE	FALSE	0	FALSE	FALSE	TRUE
p06	2015	07	14	16	13	m	21	l	6.47989259998	3	141	0.519313101016	1.04101260112	left	tactile	right	tactile	target	voice	164.798032551	FALSE	FALSE	FALSE	FALSE	FALSE	0	FALSE	FALSE	TRUE
p06	2015	07	14	16	13	m	21	l	6.47989259998	3	142	0.607062358991	0.580986509901	right	visual	left	tactile	target	voice	195.39564877	FALSE	FALSE	FALSE	FALSE	FALSE	0	FALSE	FALSE	TRUE
p06	2015	07	14	16	13	m	21	l	6.47989259998	3	143	0.566189781006	0.739784088998	right	tactile	left	tactile	target	voice	71.0021976847	FALSE	FALSE	FALSE	FALSE	FALSE	0	FALSE	FALSE	TRUE
p06	2015	07	14	16	13	m	21	l	6.47989259998	3	144	0.405903103994	1.10026883545	left	tactile	right	tactile	target	voice	205.876378226	FALSE	FALSE	FALSE	FALSE	FALSE	0	FALSE	FALSE	TRUE
p06	2015	07	14	16	13	m	21	l	6.47989259998	3	145	0.428349420952	0.691997826042	right	visual	left	visual	target	voice	203.403913649	FALSE	FALSE	FALSE	FALSE	FALSE	0	FALSE	FALSE	TRUE
p06	2015	07	14	16	13	m	21	l	6.47989259998	3	146	1.72029539297	1.33433087486	right	visual	left	visual	target	voice	250.502786832	FALSE	FALSE	FALSE	FALSE	TRUE	0	FALSE	FALSE	TRUE
p06	2015	07	14	16	13	m	21	l	6.47989259998	3	147	0.40645142697	1.29832205243	left	visual	right	visual	target	voice	236.115898238	FALSE	FALSE	FALSE	FALSE	FALSE	0	FALSE	FALSE	TRUE
p06	2015	07	14	16	13	m	21	l	6.47989259998	3	148	1.50651523698	0.671129442117	left	tactile	right	visual	target	voice	131.885558541	FALSE	FALSE	FALSE	FALSE	FALSE	0	FALSE	FALSE	TRUE
p06	2015	07	14	16	13	m	21	l	6.47989259998	3	149	0.590232154005	0.807778757903	left	tactile	right	visual	target	voice	9.53549676342	FALSE	FALSE	FALSE	FALSE	FALSE	0	FALSE	FALSE	TRUE
p06	2015	07	14	16	13	m	21	l	6.47989259998	3	150	1.09469117195	0.592569150084	right	visual	right	visual	catch	NA	NA	FALSE	FALSE	FALSE	FALSE	FALSE	0	FALSE	FALSE	TRUE
p06	2015	07	14	16	13	m	21	l	6.47989259998	3	151	0.713744383014	1.22371417053	right	tactile	left	tactile	target	voice	213.90686417	FALSE	FALSE	FALSE	FALSE	FALSE	0	FALSE	FALSE	TRUE
p06	2015	07	14	16	13	m	21	l	6.47989259998	3	152	0.457720697974	1.15828764108	right	tactile	right	visual	target	voice	74.9197945697	FALSE	FALSE	FALSE	FALSE	FALSE	0	FALSE	FALSE	TRUE
p06	2015	07	14	16	13	m	21	l	6.47989259998	3	153	0.418619904027	1.23068743828	left	tactile	left	tactile	target	voice	403.176650347	FALSE	FALSE	FALSE	FALSE	FALSE	0	FALSE	FALSE	TRUE
p06	2015	07	14	16	13	m	21	l	6.47989259998	3	154	1.56527493999	1.43011870134	right	tactile	right	tactile	target	voice	287.77745727	FALSE	FALSE	FALSE	FALSE	FALSE	0	FALSE	FALSE	TRUE
p06	2015	07	14	16	13	m	21	l	6.47989259998	3	155	2.38217542699	0.881156324598	right	tactile	right	tactile	target	voice	349.503528094	FALSE	FALSE	FALSE	FALSE	TRUE	0	FALSE	FALSE	TRUE
p06	2015	07	14	16	13	m	21	l	6.47989259998	3	156	0.449922672007	0.77627641021	right	tactile	right	tactile	target	voice	209.999714454	FALSE	FALSE	FALSE	FALSE	FALSE	0	FALSE	FALSE	TRUE
p06	2015	07	14	16	13	m	21	l	6.47989259998	3	157	0.392862353998	0.705821380953	right	visual	right	visual	target	voice	50.8320736699	FALSE	FALSE	FALSE	FALSE	FALSE	0	FALSE	FALSE	TRUE
p06	2015	07	14	16	13	m	21	l	6.47989259998	3	158	0.506305953953	0.908046579398	right	visual	left	visual	target	voice	231.233915256	FALSE	FALSE	FALSE	FALSE	FALSE	0	FALSE	FALSE	TRUE
p06	2015	07	14	16	13	m	21	l	6.47989259998	3	159	1.57910645398	1.2234675034	left	tactile	left	tactile	target	voice	29.6484482824	FALSE	FALSE	FALSE	FALSE	FALSE	0	FALSE	FALSE	TRUE
p06	2015	07	14	16	13	m	21	l	6.47989259998	3	160	0.770181004016	0.572829227405	left	visual	right	visual	target	voice	249.816468218	FALSE	FALSE	FALSE	FALSE	FALSE	0	FALSE	FALSE	TRUE
p06	2015	07	14	16	13	m	21	l	24.088040712	4	1	0.689965800964	1.03549092798	right	tactile	right	tactile	target	voice	352.584169712	FALSE	FALSE	FALSE	FALSE	FALSE	0	FALSE	FALSE	TRUE
p06	2015	07	14	16	13	m	21	l	24.088040712	4	2	0.453821508039	0.867732886763	right	visual	right	tactile	target	voice	243.462576938	FALSE	FALSE	FALSE	FALSE	FALSE	0	FALSE	FALSE	TRUE
p06	2015	07	14	16	13	m	21	l	24.088040712	4	3	0.409213540028	0.929684228462	left	tactile	left	visual	target	voice	317.940574198	FALSE	FALSE	FALSE	FALSE	FALSE	0	FALSE	FALSE	TRUE
p06	2015	07	14	16	13	m	21	l	24.088040712	4	4	0.415470125969	0.504366453703	right	visual	left	visual	target	voice	227.287586022	FALSE	FALSE	FALSE	FALSE	FALSE	0	FALSE	FALSE	TRUE
p06	2015	07	14	16	13	m	21	l	24.088040712	4	5	3.29435233498	1.40864098828	right	visual	right	tactile	target	NA	NA	FALSE	FALSE	FALSE	FALSE	FALSE	0	FALSE	FALSE	TRUE
p06	2015	07	14	16	13	m	21	l	24.088040712	4	6	0.855012042972	0.697174888647	left	visual	right	visual	target	voice	249.012404005	FALSE	FALSE	FALSE	FALSE	FALSE	0	FALSE	FALSE	TRUE
p06	2015	07	14	16	13	m	21	l	24.088040712	4	7	0.476807093946	0.570746690121	right	visual	left	tactile	target	voice	209.023019532	FALSE	FALSE	FALSE	FALSE	FALSE	0	FALSE	FALSE	TRUE
p06	2015	07	14	16	13	m	21	l	24.088040712	4	8	0.489082442014	0.669222311787	left	tactile	right	tactile	target	voice	185.527511872	FALSE	FALSE	FALSE	FALSE	FALSE	0	FALSE	FALSE	TRUE
p06	2015	07	14	16	13	m	21	l	24.088040712	4	9	0.431473631004	0.777221507937	left	tactile	left	tactile	target	voice	75.8739987505	FALSE	FALSE	FALSE	FALSE	FALSE	0	FALSE	FALSE	TRUE
p06	2015	07	14	16	13	m	21	l	24.088040712	4	10	0.419817353017	1.25179523729	right	tactile	left	visual	catch	voice	NA	TRUE	FALSE	FALSE	FALSE	FALSE	0	FALSE	FALSE	FALSE
p06	2015	07	14	16	13	m	21	l	24.088040712	4	11	0.462282035965	1.0355528308	right	tactile	left	tactile	target	voice	176.605521876	FALSE	FALSE	FALSE	FALSE	FALSE	0	FALSE	FALSE	TRUE
p06	2015	07	14	16	13	m	21	l	24.088040712	4	12	0.512219605967	1.45395250153	left	visual	left	tactile	target	voice	191.569655086	FALSE	FALSE	FALSE	FALSE	TRUE	0	FALSE	TRUE	TRUE
p06	2015	07	14	16	13	m	21	l	24.088040712	4	13	0.476709931041	0.868764793233	right	tactile	right	tactile	target	voice	196.137870487	FALSE	FALSE	FALSE	FALSE	FALSE	0	FALSE	FALSE	TRUE
p06	2015	07	14	16	13	m	21	l	24.088040712	4	14	0.412598203984	1.06220942948	left	tactile	right	visual	target	voice	188.756379241	FALSE	FALSE	FALSE	FALSE	FALSE	0	FALSE	FALSE	TRUE
p06	2015	07	14	16	13	m	21	l	24.088040712	4	15	0.546476646967	1.3701876472	right	tactile	left	tactile	target	voice	175.335065462	FALSE	FALSE	FALSE	FALSE	TRUE	0	FALSE	TRUE	TRUE
p06	2015	07	14	16	13	m	21	l	24.088040712	4	16	0.531799573975	0.743047340698	left	visual	left	visual	target	voice	231.626088964	FALSE	FALSE	FALSE	FALSE	FALSE	0	FALSE	FALSE	TRUE
p06	2015	07	14	16	13	m	21	l	24.088040712	4	17	0.40998629597	1.3719366984	right	tactile	right	tactile	catch	voice	NA	TRUE	FALSE	FALSE	FALSE	FALSE	0	FALSE	FALSE	FALSE
p06	2015	07	14	16	13	m	21	l	24.088040712	4	18	0.486465199967	0.609035389428	left	tactile	left	tactile	target	voice	179.985244235	FALSE	FALSE	FALSE	FALSE	TRUE	0	FALSE	TRUE	TRUE
p06	2015	07	14	16	13	m	21	l	24.088040712	4	19	0.473644460028	1.49345864753	left	visual	left	visual	target	voice	230.590935156	FALSE	FALSE	FALSE	FALSE	FALSE	0	FALSE	FALSE	TRUE
p06	2015	07	14	16	13	m	21	l	24.088040712	4	20	8.11694665503	1.39674520336	right	tactile	left	visual	target	voice	272.350189334	FALSE	FALSE	FALSE	FALSE	TRUE	0	FALSE	FALSE	TRUE
p06	2015	07	14	16	13	m	21	l	24.088040712	4	21	0.411216154986	0.926129227994	right	visual	right	tactile	target	voice	196.649189689	FALSE	FALSE	FALSE	FALSE	FALSE	0	FALSE	FALSE	TRUE
p06	2015	07	14	16	13	m	21	l	24.088040712	4	22	2.87594057102	0.801670517249	right	tactile	left	tactile	target	voice	180.717636424	FALSE	FALSE	FALSE	FALSE	TRUE	0	FALSE	FALSE	TRUE
p06	2015	07	14	16	13	m	21	l	24.088040712	4	23	13.219159852	1.29491568405	left	visual	right	tactile	target	voice	286.515297659	FALSE	FALSE	FALSE	FALSE	FALSE	0	FALSE	FALSE	TRUE
p06	2015	07	14	16	13	m	21	l	24.088040712	4	24	0.738860870013	1.42735641533	left	tactile	right	tactile	catch	NA	NA	FALSE	FALSE	FALSE	FALSE	FALSE	0	FALSE	FALSE	TRUE
p06	2015	07	14	16	13	m	21	l	24.088040712	4	25	1.28950021899	1.04500052813	left	tactile	right	tactile	target	voice	225.684041565	FALSE	FALSE	FALSE	FALSE	FALSE	0	FALSE	FALSE	TRUE
p06	2015	07	14	16	13	m	21	l	24.088040712	4	26	0.406131058	0.887414022228	left	visual	left	visual	target	voice	190.861209412	FALSE	FALSE	FALSE	FALSE	FALSE	0	FALSE	FALSE	TRUE
p06	2015	07	14	16	13	m	21	l	24.088040712	4	27	0.400832559972	1.01202115129	right	tactile	right	tactile	target	voice	90.8966333373	FALSE	FALSE	FALSE	FALSE	FALSE	0	FALSE	FALSE	TRUE
p06	2015	07	14	16	13	m	21	l	24.088040712	4	28	0.49779990199	1.25416548069	right	visual	left	tactile	catch	voice	NA	TRUE	FALSE	FALSE	FALSE	FALSE	0	FALSE	FALSE	FALSE
p06	2015	07	14	16	13	m	21	l	24.088040712	4	29	2.686683662	0.795818834359	right	visual	left	visual	target	voice	241.236639326	FALSE	FALSE	FALSE	FALSE	FALSE	0	FALSE	FALSE	TRUE
p06	2015	07	14	16	13	m	21	l	24.088040712	4	30	0.559488915955	0.84012948948	left	tactile	left	tactile	catch	NA	NA	FALSE	FALSE	FALSE	FALSE	FALSE	0	FALSE	FALSE	TRUE
p06	2015	07	14	16	13	m	21	l	24.088040712	4	31	0.744704707002	0.83793646739	left	tactile	left	tactile	target	voice	288.494290318	FALSE	FALSE	FALSE	FALSE	FALSE	0	FALSE	FALSE	TRUE
p06	2015	07	14	16	13	m	21	l	24.088040712	4	32	0.446837254975	0.877948744602	left	visual	left	visual	target	voice	340.279536031	FALSE	FALSE	FALSE	FALSE	TRUE	0	FALSE	TRUE	TRUE
p06	2015	07	14	16	13	m	21	l	24.088040712	4	33	0.39685045596	0.717838392509	left	visual	left	tactile	catch	NA	NA	FALSE	FALSE	FALSE	FALSE	FALSE	0	FALSE	FALSE	TRUE
p06	2015	07	14	16	13	m	21	l	24.088040712	4	34	0.627185415011	1.10254789134	right	tactile	right	tactile	target	voice	388.884316315	FALSE	FALSE	FALSE	FALSE	TRUE	0	FALSE	TRUE	TRUE
p06	2015	07	14	16	13	m	21	l	24.088040712	4	35	0.512254116999	1.26104935513	right	tactile	left	tactile	target	voice	320.236234518	FALSE	FALSE	FALSE	FALSE	FALSE	0	FALSE	FALSE	TRUE
p06	2015	07	14	16	13	m	21	l	24.088040712	4	36	0.40517187299	0.715421239951	left	visual	left	visual	target	voice	273.966611654	FALSE	FALSE	FALSE	FALSE	FALSE	0	FALSE	FALSE	TRUE
p06	2015	07	14	16	13	m	21	l	24.088040712	4	37	0.397944837983	0.981845152804	right	tactile	right	tactile	target	voice	49.5539219119	FALSE	FALSE	FALSE	FALSE	TRUE	0	FALSE	TRUE	TRUE
p06	2015	07	14	16	13	m	21	l	24.088040712	4	38	0.733923822991	1.25820142881	left	visual	right	visual	target	voice	247.249790875	FALSE	FALSE	FALSE	FALSE	FALSE	0	FALSE	FALSE	TRUE
p06	2015	07	14	16	13	m	21	l	24.088040712	4	39	0.394122902013	0.840415135411	right	tactile	left	visual	target	voice	244.576488272	FALSE	FALSE	FALSE	FALSE	TRUE	0	FALSE	TRUE	TRUE
p06	2015	07	14	16	13	m	21	l	24.088040712	4	40	4.65402329201	0.960122707584	left	visual	left	tactile	target	voice	182.940464059	FALSE	FALSE	FALSE	FALSE	FALSE	0	FALSE	FALSE	TRUE
p06	2015	07	14	16	13	m	21	l	5.89373551199	4	41	0.674126424012	0.683633067602	left	tactile	right	visual	target	voice	243.331585079	FALSE	FALSE	FALSE	FALSE	FALSE	0	FALSE	FALSE	TRUE
p06	2015	07	14	16	13	m	21	l	5.89373551199	4	42	0.412604200013	0.714002764961	right	visual	right	visual	catch	voice	268.543102662	FALSE	FALSE	FALSE	FALSE	FALSE	0	FALSE	FALSE	TRUE
p06	2015	07	14	16	13	m	21	l	5.89373551199	4	43	0.472297605011	0.838248126062	right	visual	left	visual	target	voice	204.123975651	FALSE	FALSE	FALSE	FALSE	FALSE	0	FALSE	FALSE	TRUE
p06	2015	07	14	16	13	m	21	l	5.89373551199	4	44	0.421897431952	0.695513713001	left	tactile	right	visual	target	voice	235.760134645	FALSE	FALSE	FALSE	FALSE	FALSE	0	FALSE	FALSE	TRUE
p06	2015	07	14	16	13	m	21	l	5.89373551199	4	45	0.401677468966	0.616926623643	left	visual	right	tactile	target	voice	203.492541041	FALSE	FALSE	FALSE	FALSE	FALSE	0	FALSE	FALSE	TRUE
p06	2015	07	14	16	13	m	21	l	5.89373551199	4	46	0.409048906004	1.09499723119	right	visual	right	visual	target	voice	238.487390452	FALSE	FALSE	FALSE	FALSE	FALSE	0	FALSE	FALSE	TRUE
