id	year	month	day	hour	minute	sex	age	handedness	message_viewing_time	block	trial_num	trial_initiation_time	fixation_duration	cue_modality	cue_location	target_location	target_modality	target_response_key	target_response_rt	pre_target_response	feedback_response	recalibration	blink	saccade	biggest_small_saccade
p09	2015	06	17	09	18	f	18	r	445.112469926	practice	1	12.165469307	1.35839571774	tactile	right	right	tactile	NA	NA	FALSE	FALSE	FALSE	FALSE	TRUE	0
p09	2015	06	17	09	18	f	18	r	445.112469926	practice	2	2.53421071102	1.02440680622	tactile	left	catch	tactile	voice	NA	TRUE	FALSE	FALSE	FALSE	FALSE	0
p09	2015	06	17	09	18	f	18	r	445.112469926	practice	3	9.54455257603	1.17551061618	tactile	left	right	visual	NA	NA	FALSE	FALSE	FALSE	FALSE	TRUE	0
p09	2015	06	17	09	18	f	18	r	445.112469926	practice	4	8.39361416013	0.991868991575	tactile	left	left	tactile	voice	NA	TRUE	FALSE	FALSE	FALSE	FALSE	0
p09	2015	06	17	09	18	f	18	r	445.112469926	practice	5	2.77941742004	1.20032967492	tactile	left	right	tactile	NA	NA	FALSE	FALSE	FALSE	TRUE	FALSE	0
p09	2015	06	17	09	18	f	18	r	445.112469926	practice	6	3.96528237499	1.40030637194	visual	right	right	visual	NA	NA	FALSE	FALSE	FALSE	FALSE	TRUE	0
p09	2015	06	17	09	18	f	18	r	445.112469926	practice	7	1.47064636508	1.30845147698	visual	right	right	tactile	NA	448.731080629	FALSE	FALSE	FALSE	FALSE	FALSE	0
p09	2015	06	17	09	18	f	18	r	445.112469926	practice	8	1.79158451897	1.25887047802	visual	left	right	tactile	NA	288.990522502	FALSE	FALSE	FALSE	FALSE	FALSE	0
p09	2015	06	17	09	18	f	18	r	445.112469926	practice	9	4.30890054395	0.897191505334	tactile	left	left	visual	NA	414.087798214	FALSE	FALSE	FALSE	FALSE	FALSE	0
p09	2015	06	17	09	18	f	18	r	445.112469926	practice	10	2.16717692604	0.76468458418	tactile	left	left	visual	NA	348.651124397	FALSE	FALSE	FALSE	FALSE	FALSE	0
p09	2015	06	17	09	18	f	18	r	445.112469926	practice	11	1.72045920882	1.10664565437	tactile	right	right	visual	NA	NA	FALSE	FALSE	FALSE	FALSE	TRUE	0
p09	2015	06	17	09	18	f	18	r	445.112469926	practice	12	6.36461503198	1.17533238809	visual	right	left	visual	NA	655.452642357	FALSE	FALSE	FALSE	FALSE	FALSE	0
p09	2015	06	17	09	18	f	18	r	445.112469926	practice	13	4.4095460102	0.873246606422	visual	right	left	visual	NA	352.685959078	FALSE	FALSE	FALSE	FALSE	FALSE	0
p09	2015	06	17	09	18	f	18	r	445.112469926	practice	14	22.7717464662	0.902171855114	visual	right	left	tactile	NA	345.022996422	FALSE	FALSE	FALSE	FALSE	FALSE	0
p09	2015	06	17	09	18	f	18	r	445.112469926	practice	15	1.45309859421	1.12836629702	visual	left	left	tactile	NA	305.325313704	FALSE	FALSE	FALSE	FALSE	FALSE	0
p09	2015	06	17	09	18	f	18	r	445.112469926	practice	16	3.58181652613	1.20516339253	visual	right	right	visual	NA	445.06452512	FALSE	FALSE	FALSE	FALSE	FALSE	0
p09	2015	06	17	09	18	f	18	r	445.112469926	practice	17	2.32577836397	1.32810656306	tactile	right	right	tactile	NA	383.024674607	FALSE	FALSE	FALSE	FALSE	FALSE	0
p09	2015	06	17	09	18	f	18	r	445.112469926	practice	18	1.38192686881	1.15531708436	tactile	left	right	tactile	NA	NA	FALSE	FALSE	FALSE	FALSE	TRUE	0
p09	2015	06	17	09	18	f	18	r	445.112469926	practice	19	10.9122535191	0.907186785945	tactile	right	catch	visual	NA	NA	FALSE	FALSE	FALSE	FALSE	FALSE	0
p09	2015	06	17	09	18	f	18	r	445.112469926	practice	20	1.94536905782	0.513792420066	visual	left	right	visual	NA	528.000120539	FALSE	FALSE	FALSE	FALSE	FALSE	0
p09	2015	06	17	09	18	f	18	r	445.112469926	practice	21	1.80780481105	0.926788969406	tactile	right	catch	tactile	NA	NA	FALSE	FALSE	FALSE	FALSE	TRUE	0
p09	2015	06	17	09	18	f	18	r	445.112469926	practice	22	1.50613947609	0.649273204492	tactile	right	right	tactile	NA	341.2251072	FALSE	FALSE	FALSE	FALSE	FALSE	0
p09	2015	06	17	09	18	f	18	r	445.112469926	practice	23	1.90408981405	0.706432201347	visual	right	right	visual	NA	401.317236247	FALSE	FALSE	FALSE	FALSE	FALSE	0
p09	2015	06	17	09	18	f	18	r	445.112469926	practice	24	1.59895227896	0.928126725989	visual	right	left	visual	NA	305.336836493	FALSE	FALSE	FALSE	FALSE	FALSE	0
p09	2015	06	17	09	18	f	18	r	445.112469926	practice	25	3.30691370112	0.733771085183	tactile	left	right	tactile	NA	430.178701412	FALSE	FALSE	FALSE	FALSE	FALSE	0
p09	2015	06	17	09	18	f	18	r	445.112469926	practice	26	3.36930283206	1.24259255207	tactile	right	right	visual	NA	NA	FALSE	FALSE	FALSE	FALSE	TRUE	0
p09	2015	06	17	09	18	f	18	r	445.112469926	practice	27	2.91839360306	1.46470148238	visual	left	right	visual	NA	NA	FALSE	FALSE	FALSE	FALSE	TRUE	0
p09	2015	06	17	09	18	f	18	r	445.112469926	practice	28	2.70986585692	1.2724712369	visual	right	catch	tactile	NA	NA	FALSE	FALSE	FALSE	FALSE	FALSE	0
p09	2015	06	17	09	18	f	18	r	445.112469926	practice	29	1.41710860492	0.586527837516	visual	right	right	tactile	NA	397.242583334	FALSE	FALSE	FALSE	FALSE	FALSE	0
p09	2015	06	17	09	18	f	18	r	445.112469926	practice	30	1.71738376911	0.797195477936	tactile	left	right	tactile	NA	413.499304792	FALSE	FALSE	FALSE	FALSE	FALSE	0
p09	2015	06	17	09	18	f	18	r	445.112469926	practice	31	1.35080278921	0.959713260034	visual	left	right	visual	NA	337.654849514	FALSE	FALSE	FALSE	FALSE	FALSE	0
p09	2015	06	17	09	18	f	18	r	445.112469926	practice	32	1.35934230196	0.68645122556	tactile	right	left	visual	NA	393.476659199	FALSE	FALSE	FALSE	FALSE	FALSE	0
p09	2015	06	17	09	18	f	18	r	445.112469926	practice	33	1.36356706102	0.716388550427	visual	right	left	tactile	NA	NA	FALSE	FALSE	FALSE	FALSE	FALSE	0
p09	2015	06	17	09	18	f	18	r	445.112469926	practice	34	1.65138919302	1.1392514424	visual	left	right	visual	NA	407.558392268	FALSE	FALSE	FALSE	FALSE	FALSE	0
p09	2015	06	17	09	18	f	18	r	445.112469926	practice	35	5.6612248139	1.38595849384	visual	right	right	visual	NA	NA	FALSE	FALSE	FALSE	FALSE	TRUE	0
p09	2015	06	17	09	18	f	18	r	445.112469926	practice	36	1.44179966394	1.31086295228	tactile	right	right	visual	NA	NA	FALSE	FALSE	FALSE	FALSE	TRUE	0
p09	2015	06	17	09	18	f	18	r	445.112469926	practice	37	2.12871685508	1.37585822472	visual	left	right	visual	NA	NA	FALSE	FALSE	FALSE	FALSE	FALSE	0
p09	2015	06	17	09	18	f	18	r	445.112469926	practice	38	4.99150240212	1.25971729705	tactile	right	right	visual	NA	617.035161704	FALSE	FALSE	FALSE	FALSE	FALSE	0
p09	2015	06	17	09	18	f	18	r	445.112469926	practice	39	3.64803151297	1.17133572606	tactile	left	right	visual	NA	311.042272486	FALSE	FALSE	FALSE	FALSE	FALSE	0
p09	2015	06	17	09	18	f	18	r	445.112469926	practice	40	1.63119635801	1.44366291945	tactile	left	right	tactile	NA	364.763836376	FALSE	FALSE	FALSE	FALSE	FALSE	0
p09	2015	06	17	09	18	f	18	r	25.3379061921	practice	41	2.00464458088	0.825058566303	tactile	right	right	tactile	NA	422.165105352	FALSE	FALSE	FALSE	FALSE	FALSE	0
p09	2015	06	17	09	18	f	18	r	25.3379061921	practice	42	1.32668871316	1.43098360479	visual	right	right	visual	NA	421.482106904	FALSE	FALSE	FALSE	FALSE	FALSE	0
p09	2015	06	17	09	18	f	18	r	25.3379061921	practice	43	1.333545984	0.832683743296	visual	left	left	tactile	NA	NA	FALSE	FALSE	FALSE	FALSE	FALSE	0
p09	2015	06	17	09	18	f	18	r	25.3379061921	practice	44	2.04562634695	0.621416990174	visual	left	left	tactile	NA	383.202570491	FALSE	FALSE	FALSE	FALSE	FALSE	0
p09	2015	06	17	09	18	f	18	r	25.3379061921	practice	45	1.23490638006	0.744139877309	visual	left	right	visual	NA	330.186115345	FALSE	FALSE	FALSE	FALSE	FALSE	0
p09	2015	06	17	09	18	f	18	r	25.3379061921	practice	46	1.35614643805	0.592797187927	tactile	right	right	visual	NA	NA	FALSE	FALSE	FALSE	FALSE	TRUE	0
p09	2015	06	17	09	18	f	18	r	25.3379061921	practice	47	1.20902114199	0.997333123952	tactile	right	catch	tactile	NA	NA	FALSE	FALSE	FALSE	FALSE	FALSE	0
p09	2015	06	17	09	18	f	18	r	25.3379061921	practice	48	1.2541324459	0.631102016669	tactile	left	right	tactile	NA	NA	FALSE	FALSE	FALSE	FALSE	TRUE	0
p09	2015	06	17	09	18	f	18	r	25.3379061921	practice	49	1.413507513	0.639439126379	tactile	left	catch	tactile	NA	NA	FALSE	FALSE	FALSE	FALSE	FALSE	0
p09	2015	06	17	09	18	f	18	r	25.3379061921	practice	50	1.29400435882	1.46641011548	tactile	right	right	visual	NA	NA	FALSE	FALSE	FALSE	FALSE	TRUE	0
p09	2015	06	17	09	18	f	18	r	25.3379061921	practice	51	2.32967065601	0.788959252519	tactile	right	right	tactile	NA	477.529744385	FALSE	FALSE	FALSE	FALSE	FALSE	0
p09	2015	06	17	09	18	f	18	r	25.3379061921	practice	52	1.6429376849	0.606821279672	tactile	left	right	tactile	NA	523.415249772	FALSE	FALSE	FALSE	FALSE	FALSE	0
p09	2015	06	17	09	18	f	18	r	25.3379061921	practice	53	1.60486872983	1.10618186582	visual	right	right	visual	NA	449.519569753	FALSE	FALSE	FALSE	FALSE	FALSE	0
p09	2015	06	17	09	18	f	18	r	25.3379061921	practice	54	3.28040200286	1.11725263623	tactile	right	right	visual	NA	407.021798193	FALSE	FALSE	FALSE	FALSE	FALSE	0
p09	2015	06	17	09	18	f	18	r	87.2661757979	1	1	3.24864339503	1.03761487558	tactile	right	right	tactile	NA	478.732888121	FALSE	FALSE	FALSE	FALSE	TRUE	0
p09	2015	06	17	09	18	f	18	r	87.2661757979	1	2	36.0811802589	0.526738777541	visual	right	left	tactile	NA	296.70295422	FALSE	FALSE	FALSE	FALSE	FALSE	0
p09	2015	06	17	09	18	f	18	r	87.2661757979	1	3	1.28438844206	1.1205663493	visual	left	right	visual	NA	323.776436271	FALSE	FALSE	FALSE	FALSE	TRUE	0
p09	2015	06	17	09	18	f	18	r	87.2661757979	1	4	1.22301156609	0.912703757479	tactile	left	catch	tactile	NA	NA	FALSE	FALSE	FALSE	FALSE	TRUE	0
p09	2015	06	17	09	18	f	18	r	87.2661757979	1	5	1.18402118608	1.22336554373	visual	left	right	visual	NA	325.828556903	FALSE	FALSE	FALSE	FALSE	TRUE	0
p09	2015	06	17	09	18	f	18	r	87.2661757979	1	6	1.15343784611	0.805476326323	visual	right	right	tactile	NA	366.02966534	FALSE	FALSE	FALSE	FALSE	FALSE	0
p09	2015	06	17	09	18	f	18	r	87.2661757979	1	7	0.906315546948	1.43786080773	tactile	right	left	visual	NA	339.608232956	FALSE	FALSE	FALSE	FALSE	TRUE	0
p09	2015	06	17	09	18	f	18	r	87.2661757979	1	8	5.84773192508	1.314203733	visual	left	left	tactile	NA	326.649982948	FALSE	FALSE	FALSE	FALSE	TRUE	0
p09	2015	06	17	09	18	f	18	r	87.2661757979	1	9	5.49218309601	1.31092749003	tactile	left	left	tactile	NA	412.294762675	FALSE	FALSE	FALSE	FALSE	FALSE	0
p09	2015	06	17	09	18	f	18	r	87.2661757979	1	10	3.04661440803	1.35698969214	visual	left	right	tactile	NA	295.484790346	FALSE	FALSE	FALSE	FALSE	FALSE	0
p09	2015	06	17	09	18	f	18	r	87.2661757979	1	11	1.50827981997	0.923512375078	visual	right	right	tactile	NA	344.673550688	FALSE	FALSE	FALSE	FALSE	TRUE	0
p09	2015	06	17	09	18	f	18	r	87.2661757979	1	12	3.93086237414	0.666976373241	tactile	left	left	visual	NA	457.779651275	FALSE	FALSE	FALSE	FALSE	FALSE	0
p09	2015	06	17	09	18	f	18	r	87.2661757979	1	13	2.62156577804	1.32415881793	tactile	left	right	visual	NA	295.186587609	FALSE	FALSE	FALSE	FALSE	FALSE	0
p09	2015	06	17	09	18	f	18	r	87.2661757979	1	14	1.55573075404	0.519525278633	tactile	right	right	visual	NA	395.027014893	FALSE	FALSE	FALSE	FALSE	FALSE	0
p09	2015	06	17	09	18	f	18	r	87.2661757979	1	15	2.28177932999	1.2970968565	tactile	left	left	visual	NA	341.508619254	FALSE	FALSE	FALSE	FALSE	FALSE	0
p09	2015	06	17	09	18	f	18	r	87.2661757979	1	16	3.4956963181	1.48563001246	tactile	left	left	visual	NA	288.935084362	FALSE	FALSE	FALSE	FALSE	TRUE	0
p09	2015	06	17	09	18	f	18	r	87.2661757979	1	17	10.1971913101	1.3494952874	tactile	left	right	visual	NA	385.194104398	FALSE	FALSE	FALSE	FALSE	FALSE	0
p09	2015	06	17	09	18	f	18	r	87.2661757979	1	18	1.75372550404	1.40976280515	visual	left	catch	visual	NA	NA	FALSE	FALSE	FALSE	FALSE	TRUE	0
p09	2015	06	17	09	18	f	18	r	87.2661757979	1	19	1.25886186305	1.30033277313	visual	right	left	visual	NA	361.62352236	FALSE	FALSE	FALSE	FALSE	FALSE	0
p09	2015	06	17	09	18	f	18	r	87.2661757979	1	20	52.8201190422	0.86851473944	visual	left	left	tactile	NA	306.59081717	FALSE	FALSE	FALSE	FALSE	TRUE	0
p09	2015	06	17	09	18	f	18	r	87.2661757979	1	21	4.33414741303	0.964664559733	visual	left	left	visual	NA	426.845407812	FALSE	FALSE	FALSE	FALSE	TRUE	0
p09	2015	06	17	09	18	f	18	r	87.2661757979	1	22	2.30068928283	1.27655926373	visual	left	left	tactile	NA	283.028917853	FALSE	FALSE	FALSE	FALSE	TRUE	0
p09	2015	06	17	09	18	f	18	r	87.2661757979	1	23	1.65713997395	1.36182532273	visual	right	right	visual	NA	437.906523701	FALSE	FALSE	FALSE	FALSE	FALSE	0
p09	2015	06	17	09	18	f	18	r	87.2661757979	1	24	2.17740715295	1.1642305822	tactile	left	right	tactile	NA	324.895429192	FALSE	FALSE	FALSE	FALSE	FALSE	0
p09	2015	06	17	09	18	f	18	r	87.2661757979	1	25	1.71328217397	1.43549348936	tactile	left	right	visual	NA	364.070938202	FALSE	FALSE	FALSE	FALSE	FALSE	0
p09	2015	06	17	09	18	f	18	r	87.2661757979	1	26	1.54868565989	1.17340199311	visual	right	catch	visual	NA	NA	FALSE	FALSE	FALSE	TRUE	TRUE	0
p09	2015	06	17	09	18	f	18	r	87.2661757979	1	27	1.08211464714	1.24833537906	visual	right	right	tactile	NA	299.406467471	FALSE	FALSE	FALSE	FALSE	FALSE	0
p09	2015	06	17	09	18	f	18	r	87.2661757979	1	28	2.81190017005	1.48885505763	tactile	right	left	tactile	NA	261.269144015	FALSE	FALSE	FALSE	FALSE	FALSE	0
p09	2015	06	17	09	18	f	18	r	87.2661757979	1	29	1.667318878	1.49173786803	tactile	right	left	visual	NA	248.545283685	FALSE	FALSE	FALSE	FALSE	FALSE	0
p09	2015	06	17	09	18	f	18	r	87.2661757979	1	30	1.06595172104	0.535811486578	visual	right	left	tactile	NA	476.326534757	FALSE	FALSE	FALSE	FALSE	FALSE	0
p09	2015	06	17	09	18	f	18	r	87.2661757979	1	31	1.05625608098	0.772813169682	tactile	right	catch	tactile	NA	NA	FALSE	FALSE	FALSE	FALSE	TRUE	0
p09	2015	06	17	09	18	f	18	r	87.2661757979	1	32	1.00674365391	1.38426416503	tactile	left	left	visual	NA	460.917183431	FALSE	FALSE	FALSE	FALSE	FALSE	0
p09	2015	06	17	09	18	f	18	r	87.2661757979	1	33	1.35357899591	0.509261316488	visual	left	left	tactile	NA	230.966595234	FALSE	FALSE	FALSE	FALSE	FALSE	0
p09	2015	06	17	09	18	f	18	r	87.2661757979	1	34	5.15467644483	0.791606027262	visual	left	right	tactile	NA	216.682523256	FALSE	FALSE	FALSE	FALSE	TRUE	0
p09	2015	06	17	09	18	f	18	r	87.2661757979	1	35	1.6390564749	1.3865484934	tactile	right	left	tactile	NA	256.073896307	FALSE	FALSE	FALSE	FALSE	FALSE	0
p09	2015	06	17	09	18	f	18	r	87.2661757979	1	36	6.56604048912	1.15614589536	tactile	left	right	tactile	NA	248.003679328	FALSE	FALSE	FALSE	FALSE	FALSE	0
p09	2015	06	17	09	18	f	18	r	87.2661757979	1	37	2.40608079615	1.18803334602	tactile	right	right	visual	NA	440.32578636	FALSE	FALSE	FALSE	FALSE	FALSE	0
p09	2015	06	17	09	18	f	18	r	87.2661757979	1	38	5.12175099296	1.36757060719	tactile	right	right	visual	NA	404.031301383	FALSE	FALSE	FALSE	FALSE	TRUE	0
p09	2015	06	17	09	18	f	18	r	87.2661757979	1	39	6.85506511992	0.780854289592	visual	right	right	visual	NA	316.455971915	FALSE	FALSE	FALSE	FALSE	TRUE	0
p09	2015	06	17	09	18	f	18	r	87.2661757979	1	40	1.13725834503	0.82525293863	tactile	left	left	visual	NA	291.739908047	FALSE	FALSE	FALSE	FALSE	FALSE	0
p09	2015	06	17	09	18	f	18	r	49.61458694	1	41	3.47711046785	0.694830714682	tactile	right	right	visual	NA	298.209737986	FALSE	FALSE	FALSE	FALSE	TRUE	0
p09	2015	06	17	09	18	f	18	r	49.61458694	1	42	8.20142836682	1.43574264905	visual	right	catch	visual	NA	NA	FALSE	FALSE	FALSE	TRUE	FALSE	0
p09	2015	06	17	09	18	f	18	r	49.61458694	1	43	0.939005370019	1.39997561318	tactile	right	right	tactile	NA	309.686641442	FALSE	FALSE	FALSE	FALSE	FALSE	0
p09	2015	06	17	09	18	f	18	r	49.61458694	1	44	0.984008364845	1.42070053326	visual	left	right	tactile	NA	275.184855331	FALSE	FALSE	FALSE	FALSE	FALSE	0
p09	2015	06	17	09	18	f	18	r	49.61458694	1	45	0.903166849865	1.22991308841	tactile	right	right	tactile	NA	331.605405081	FALSE	FALSE	FALSE	FALSE	FALSE	0
p09	2015	06	17	09	18	f	18	r	49.61458694	1	46	1.38391723786	0.526470822587	visual	right	left	tactile	NA	337.8198992	FALSE	FALSE	FALSE	FALSE	FALSE	0
p09	2015	06	17	09	18	f	18	r	49.61458694	1	47	2.27696648287	1.47545791754	visual	right	right	tactile	NA	280.405458063	FALSE	FALSE	FALSE	FALSE	TRUE	0
p09	2015	06	17	09	18	f	18	r	49.61458694	1	48	1.16183058987	1.39575951212	tactile	left	right	tactile	NA	236.85171525	FALSE	FALSE	FALSE	FALSE	FALSE	0
p09	2015	06	17	09	18	f	18	r	49.61458694	1	49	4.08457125514	1.30856323766	tactile	right	right	tactile	NA	333.950902801	FALSE	FALSE	FALSE	FALSE	FALSE	0
p09	2015	06	17	09	18	f	18	r	49.61458694	1	50	1.16459559486	1.09473816951	tactile	left	catch	visual	NA	NA	FALSE	FALSE	FALSE	FALSE	FALSE	0
p09	2015	06	17	09	18	f	18	r	49.61458694	1	51	0.957677836996	1.04721219238	tactile	left	right	tactile	NA	245.996283367	FALSE	FALSE	FALSE	FALSE	FALSE	0
p09	2015	06	17	09	18	f	18	r	49.61458694	1	52	0.875218555098	1.40989168318	visual	right	left	visual	NA	322.307956405	FALSE	FALSE	FALSE	TRUE	TRUE	0
p09	2015	06	17	09	18	f	18	r	49.61458694	1	53	1.34033251717	1.22714556309	visual	left	left	visual	NA	389.820847427	FALSE	FALSE	FALSE	FALSE	FALSE	0
p09	2015	06	17	09	18	f	18	r	49.61458694	1	54	1.09073124779	0.571945721079	tactile	right	left	tactile	NA	206.110346597	FALSE	FALSE	FALSE	FALSE	TRUE	0
p09	2015	06	17	09	18	f	18	r	49.61458694	1	55	2.29881951702	0.701073723851	tactile	right	left	tactile	NA	243.538319832	FALSE	FALSE	FALSE	FALSE	FALSE	0
p09	2015	06	17	09	18	f	18	r	49.61458694	1	56	3.53663996002	0.639278333026	tactile	right	right	tactile	NA	258.110186784	FALSE	FALSE	FALSE	FALSE	FALSE	0
p09	2015	06	17	09	18	f	18	r	49.61458694	1	57	1.93658460304	0.750178511432	tactile	right	right	visual	NA	372.819753131	FALSE	FALSE	FALSE	TRUE	TRUE	0
p09	2015	06	17	09	18	f	18	r	49.61458694	1	58	2.21316545899	1.11218119167	visual	right	right	tactile	NA	229.641034966	FALSE	FALSE	FALSE	FALSE	FALSE	0
p09	2015	06	17	09	18	f	18	r	49.61458694	1	59	1.42681120802	1.20509731423	tactile	left	left	tactile	NA	235.986951506	FALSE	FALSE	FALSE	FALSE	FALSE	0
p09	2015	06	17	09	18	f	18	r	49.61458694	1	60	2.03099374706	1.3732148247	visual	right	right	visual	voice	NA	TRUE	FALSE	FALSE	FALSE	FALSE	0
p09	2015	06	17	09	18	f	18	r	49.61458694	1	61	3.77580009191	0.738365174329	visual	right	left	visual	NA	325.745651266	FALSE	FALSE	FALSE	FALSE	TRUE	0
p09	2015	06	17	09	18	f	18	r	49.61458694	1	62	1.25848630909	0.729123749353	tactile	left	catch	visual	NA	NA	FALSE	FALSE	FALSE	FALSE	TRUE	0
p09	2015	06	17	09	18	f	18	r	49.61458694	1	63	1.52446823684	1.35667786844	visual	right	left	visual	NA	279.279812239	FALSE	FALSE	FALSE	FALSE	FALSE	0
p09	2015	06	17	09	18	f	18	r	49.61458694	1	64	1.00627753092	0.83608558884	tactile	right	right	visual	NA	366.762763821	FALSE	FALSE	FALSE	FALSE	FALSE	0
p09	2015	06	17	09	18	f	18	r	49.61458694	1	65	1.35746015399	1.40373183699	visual	left	left	visual	NA	355.261983816	FALSE	FALSE	FALSE	FALSE	FALSE	0
p09	2015	06	17	09	18	f	18	r	49.61458694	1	66	2.27954872185	1.17103222561	visual	right	left	tactile	NA	240.319326753	FALSE	FALSE	FALSE	FALSE	FALSE	0
p09	2015	06	17	09	18	f	18	r	49.61458694	1	67	1.07946977601	1.38127575106	visual	right	right	tactile	NA	260.579012567	FALSE	FALSE	FALSE	FALSE	TRUE	0
p09	2015	06	17	09	18	f	18	r	49.61458694	1	68	1.29244290781	1.35309854447	visual	right	left	visual	NA	306.157720974	FALSE	FALSE	FALSE	FALSE	TRUE	0
p09	2015	06	17	09	18	f	18	r	49.61458694	1	69	6.10181784304	0.662828350761	visual	right	catch	tactile	NA	NA	FALSE	FALSE	FALSE	FALSE	FALSE	0
p09	2015	06	17	09	18	f	18	r	49.61458694	1	70	1.77701416193	0.729636240906	visual	left	right	tactile	NA	262.795872753	FALSE	FALSE	FALSE	FALSE	TRUE	0
p09	2015	06	17	09	18	f	18	r	49.61458694	1	71	8.16311644204	1.37677356455	visual	left	right	visual	NA	377.039486077	FALSE	FALSE	FALSE	FALSE	FALSE	0
p09	2015	06	17	09	18	f	18	r	49.61458694	1	72	3.68388232286	1.44908296491	visual	right	right	visual	NA	393.11942691	FALSE	FALSE	FALSE	FALSE	FALSE	0
p09	2015	06	17	09	18	f	18	r	49.61458694	1	73	1.051668762	1.25226906658	tactile	left	right	visual	NA	279.111351119	FALSE	FALSE	FALSE	FALSE	FALSE	0
p09	2015	06	17	09	18	f	18	r	49.61458694	1	74	1.71548409201	0.579119088613	visual	left	left	tactile	NA	259.427683894	FALSE	FALSE	FALSE	FALSE	FALSE	0
p09	2015	06	17	09	18	f	18	r	49.61458694	1	75	1.18846333306	1.08757749137	tactile	left	left	visual	NA	363.304528175	FALSE	FALSE	FALSE	FALSE	TRUE	0
p09	2015	06	17	09	18	f	18	r	49.61458694	1	76	1.01902126195	1.06495491976	visual	right	left	visual	NA	296.970641706	FALSE	FALSE	FALSE	FALSE	TRUE	0
p09	2015	06	17	09	18	f	18	r	49.61458694	1	77	2.18755316804	0.645264329167	tactile	right	left	tactile	NA	205.811467487	FALSE	FALSE	FALSE	FALSE	FALSE	0
p09	2015	06	17	09	18	f	18	r	49.61458694	1	78	3.97812003689	0.875917313973	visual	right	right	tactile	NA	298.041516449	FALSE	FALSE	FALSE	FALSE	TRUE	0
p09	2015	06	17	09	18	f	18	r	49.61458694	1	79	1.33297720389	1.24383103134	visual	left	right	visual	NA	293.215423357	FALSE	FALSE	FALSE	FALSE	FALSE	0
p09	2015	06	17	09	18	f	18	r	49.61458694	1	80	4.30837619398	0.543354745265	tactile	left	left	visual	NA	344.717576401	FALSE	FALSE	FALSE	FALSE	FALSE	0
p09	2015	06	17	09	18	f	18	r	6.39949613204	1	81	125.437686266	0.539656733357	tactile	right	left	visual	voice	NA	TRUE	FALSE	FALSE	FALSE	FALSE	0
p09	2015	06	17	09	18	f	18	r	6.39949613204	1	82	2.88378576399	1.08643134121	visual	left	left	tactile	NA	305.847184267	FALSE	FALSE	FALSE	FALSE	FALSE	0
p09	2015	06	17	09	18	f	18	r	6.39949613204	1	83	1.16978051793	1.32046142177	tactile	left	right	tactile	NA	251.062301686	FALSE	FALSE	FALSE	FALSE	FALSE	0
p09	2015	06	17	09	18	f	18	r	6.39949613204	1	84	2.04754326004	0.683080003826	visual	right	right	tactile	NA	286.818304798	FALSE	FALSE	FALSE	FALSE	TRUE	0
p09	2015	06	17	09	18	f	18	r	6.39949613204	1	85	7.35607906384	1.45492333018	tactile	right	catch	tactile	NA	NA	FALSE	FALSE	FALSE	FALSE	FALSE	0
p09	2015	06	17	09	18	f	18	r	6.39949613204	1	86	1.54757278715	0.904763344205	visual	right	left	visual	NA	421.780656325	FALSE	FALSE	FALSE	FALSE	FALSE	0
p09	2015	06	17	09	18	f	18	r	6.39949613204	1	87	1.13436028105	0.856542345605	visual	left	right	tactile	NA	420.66380498	FALSE	FALSE	FALSE	FALSE	FALSE	0
p09	2015	06	17	09	18	f	18	r	6.39949613204	1	88	1.40348057891	0.647034267021	tactile	right	right	tactile	NA	477.768744575	FALSE	FALSE	FALSE	FALSE	FALSE	0
p09	2015	06	17	09	18	f	18	r	6.39949613204	1	89	1.9283219811	1.33660160272	visual	left	left	tactile	NA	468.193604844	FALSE	FALSE	FALSE	FALSE	FALSE	0
p09	2015	06	17	09	18	f	18	r	6.39949613204	1	90	0.883227268001	1.25411361602	visual	left	right	tactile	NA	402.743520681	FALSE	FALSE	FALSE	FALSE	FALSE	0
p09	2015	06	17	09	18	f	18	r	6.39949613204	1	91	0.910469128983	1.34390142089	tactile	left	left	visual	NA	434.887458803	FALSE	FALSE	FALSE	FALSE	FALSE	0
p09	2015	06	17	09	18	f	18	r	6.39949613204	1	92	1.0688831571	1.06262448834	visual	left	left	visual	NA	427.919044392	FALSE	FALSE	FALSE	FALSE	FALSE	0
p09	2015	06	17	09	18	f	18	r	6.39949613204	1	93	0.890136417933	1.33186426112	visual	right	left	tactile	NA	399.881856516	FALSE	FALSE	FALSE	FALSE	FALSE	0
p09	2015	06	17	09	18	f	18	r	6.39949613204	1	94	1.10260516498	1.46585819674	visual	left	left	visual	NA	402.659034822	FALSE	FALSE	FALSE	FALSE	FALSE	0
p09	2015	06	17	09	18	f	18	r	6.39949613204	1	95	0.929101004032	1.17688300282	visual	right	right	visual	NA	443.106161896	FALSE	FALSE	FALSE	TRUE	TRUE	0
p09	2015	06	17	09	18	f	18	r	6.39949613204	1	96	0.753959736787	0.507761421226	tactile	right	left	tactile	NA	414.163320325	FALSE	FALSE	FALSE	FALSE	FALSE	0
p09	2015	06	17	09	18	f	18	r	6.39949613204	1	97	0.829713657033	1.25187445233	tactile	left	right	visual	NA	408.339466434	FALSE	FALSE	FALSE	FALSE	TRUE	0
p09	2015	06	17	09	18	f	18	r	6.39949613204	1	98	1.32929614512	0.773193315681	visual	left	catch	tactile	NA	NA	FALSE	FALSE	FALSE	FALSE	TRUE	0
p09	2015	06	17	09	18	f	18	r	6.39949613204	1	99	1.10969624692	1.05053369093	tactile	left	right	visual	NA	385.937801795	FALSE	FALSE	FALSE	FALSE	TRUE	0
p09	2015	06	17	09	18	f	18	r	6.39949613204	1	100	0.855288559105	1.37480366007	tactile	right	left	visual	NA	351.792588597	FALSE	FALSE	FALSE	FALSE	TRUE	0
p09	2015	06	17	09	18	f	18	r	6.39949613204	1	101	1.30815835809	0.580102812641	tactile	left	left	tactile	NA	433.913162909	FALSE	FALSE	FALSE	FALSE	FALSE	0
p09	2015	06	17	09	18	f	18	r	6.39949613204	1	102	0.862717502052	1.36343692065	visual	right	left	tactile	NA	316.799123073	FALSE	FALSE	FALSE	FALSE	TRUE	0
p09	2015	06	17	09	18	f	18	r	6.39949613204	1	103	0.88925626222	0.807287243097	tactile	left	left	tactile	NA	381.38989429	FALSE	FALSE	FALSE	TRUE	TRUE	0
p09	2015	06	17	09	18	f	18	r	6.39949613204	1	104	0.83709768299	1.26742519158	tactile	right	right	tactile	NA	425.308826147	FALSE	FALSE	FALSE	FALSE	FALSE	0
p09	2015	06	17	09	18	f	18	r	6.39949613204	1	105	1.210398152	1.08187604976	visual	right	left	tactile	NA	490.869310917	FALSE	FALSE	FALSE	FALSE	FALSE	0
p09	2015	06	17	09	18	f	18	r	6.39949613204	1	106	0.816862910055	0.897656047978	visual	right	right	tactile	NA	351.783007616	FALSE	FALSE	FALSE	FALSE	FALSE	0
p09	2015	06	17	09	18	f	18	r	6.39949613204	1	107	0.836690768134	0.826014749426	tactile	right	left	visual	NA	437.302567996	FALSE	FALSE	FALSE	FALSE	FALSE	0
p09	2015	06	17	09	18	f	18	r	6.39949613204	1	108	1.07050008001	1.20950349661	tactile	right	right	visual	NA	421.962897992	FALSE	FALSE	FALSE	FALSE	FALSE	0
p09	2015	06	17	09	18	f	18	r	6.39949613204	1	109	1.01916936995	0.781676108033	visual	left	right	tactile	NA	388.308004709	FALSE	FALSE	FALSE	FALSE	TRUE	0
p09	2015	06	17	09	18	f	18	r	6.39949613204	1	110	1.06571919494	1.41924496133	tactile	right	left	visual	NA	454.525899142	FALSE	FALSE	FALSE	TRUE	TRUE	0
p09	2015	06	17	09	18	f	18	r	6.39949613204	1	111	1.53343173605	1.11802177493	tactile	right	right	tactile	NA	377.432841575	FALSE	FALSE	FALSE	FALSE	TRUE	0
p09	2015	06	17	09	18	f	18	r	6.39949613204	1	112	0.967280179029	0.790361311084	tactile	left	catch	tactile	NA	NA	FALSE	FALSE	FALSE	FALSE	FALSE	0
p09	2015	06	17	09	18	f	18	r	6.39949613204	1	113	0.937873833114	0.832906423694	tactile	left	right	visual	NA	452.840895858	FALSE	FALSE	FALSE	FALSE	TRUE	0
p09	2015	06	17	09	18	f	18	r	6.39949613204	1	114	0.677980132867	1.41676971869	tactile	left	right	tactile	NA	456.792929908	FALSE	FALSE	FALSE	FALSE	FALSE	0
p09	2015	06	17	09	18	f	18	r	6.39949613204	1	115	0.75360730011	1.38984913577	tactile	right	right	visual	NA	406.760366866	FALSE	FALSE	FALSE	FALSE	TRUE	0
p09	2015	06	17	09	18	f	18	r	6.39949613204	1	116	0.690713942051	0.775778840139	visual	left	right	visual	NA	405.835462501	FALSE	FALSE	FALSE	FALSE	FALSE	0
p09	2015	06	17	09	18	f	18	r	6.39949613204	1	117	0.806438657921	1.12480320157	visual	left	right	visual	NA	336.264479207	FALSE	FALSE	FALSE	FALSE	FALSE	0
p09	2015	06	17	09	18	f	18	r	6.39949613204	1	118	0.700502518099	1.14387002605	tactile	right	right	tactile	NA	251.807800494	FALSE	FALSE	FALSE	FALSE	TRUE	0
p09	2015	06	17	09	18	f	18	r	6.39949613204	1	119	0.809402243001	0.617985899095	tactile	left	right	visual	NA	370.842344593	FALSE	FALSE	FALSE	FALSE	TRUE	0
p09	2015	06	17	09	18	f	18	r	6.39949613204	1	120	0.6854525581	1.32881258662	tactile	right	left	visual	NA	368.684621062	FALSE	FALSE	FALSE	FALSE	FALSE	0
p09	2015	06	17	09	18	f	18	r	6.12116286298	1	121	7.4584971359	0.612038679228	visual	left	right	visual	NA	417.800107505	FALSE	FALSE	FALSE	FALSE	FALSE	0
p09	2015	06	17	09	18	f	18	r	6.12116286298	1	122	0.800891828025	1.39497289547	visual	left	right	visual	NA	381.450615125	FALSE	FALSE	FALSE	FALSE	FALSE	0
p09	2015	06	17	09	18	f	18	r	6.12116286298	1	123	0.920525698923	0.734315646641	visual	right	right	visual	NA	497.127610957	FALSE	FALSE	FALSE	FALSE	FALSE	0
p09	2015	06	17	09	18	f	18	r	6.12116286298	1	124	0.829820458079	1.39034103255	visual	right	left	tactile	NA	272.82234421	FALSE	FALSE	FALSE	FALSE	FALSE	0
p09	2015	06	17	09	18	f	18	r	6.12116286298	1	125	1.18142563803	1.27296669028	visual	left	catch	visual	NA	298.415185418	FALSE	FALSE	FALSE	FALSE	FALSE	0
p09	2015	06	17	09	18	f	18	r	6.12116286298	1	126	1.74202811904	1.15078946497	visual	left	right	visual	NA	329.108349746	FALSE	FALSE	FALSE	FALSE	FALSE	0
p09	2015	06	17	09	18	f	18	r	6.12116286298	1	127	0.912900781957	1.13199851889	visual	right	catch	tactile	NA	NA	FALSE	FALSE	FALSE	FALSE	FALSE	0
p09	2015	06	17	09	18	f	18	r	6.12116286298	1	128	0.78763879207	1.44919714387	tactile	right	right	visual	NA	377.938301768	FALSE	FALSE	FALSE	FALSE	FALSE	0
p09	2015	06	17	09	18	f	18	r	6.12116286298	1	129	0.647204754874	0.816898512114	tactile	left	left	tactile	NA	281.824348262	FALSE	FALSE	FALSE	FALSE	FALSE	0
p09	2015	06	17	09	18	f	18	r	6.12116286298	1	130	0.698803584091	1.43711541426	visual	left	right	tactile	NA	323.703972157	FALSE	FALSE	FALSE	FALSE	FALSE	0
p09	2015	06	17	09	18	f	18	r	6.12116286298	1	131	0.8019288301	1.39242155366	tactile	left	left	visual	NA	293.671967927	FALSE	FALSE	FALSE	FALSE	FALSE	0
p09	2015	06	17	09	18	f	18	r	6.12116286298	1	132	0.92972351308	1.08507570885	tactile	right	left	visual	NA	354.76219398	FALSE	FALSE	FALSE	FALSE	TRUE	0
p09	2015	06	17	09	18	f	18	r	6.12116286298	1	133	0.594322102843	1.49454276506	tactile	right	left	tactile	voice	NA	TRUE	FALSE	FALSE	FALSE	FALSE	0
p09	2015	06	17	09	18	f	18	r	6.12116286298	1	134	0.994017384015	0.93227682171	tactile	left	left	tactile	NA	335.084752878	FALSE	FALSE	FALSE	FALSE	TRUE	0
p09	2015	06	17	09	18	f	18	r	6.12116286298	1	135	0.742918364005	1.453157719	tactile	left	right	tactile	NA	489.58645761	FALSE	FALSE	FALSE	FALSE	FALSE	0
p09	2015	06	17	09	18	f	18	r	6.12116286298	1	136	0.608788846061	0.76731302942	tactile	left	right	tactile	NA	388.710924191	FALSE	FALSE	FALSE	FALSE	TRUE	0
p09	2015	06	17	09	18	f	18	r	6.12116286298	1	137	0.702632592991	0.701691364901	visual	left	left	visual	NA	679.106313735	FALSE	FALSE	FALSE	FALSE	FALSE	0
p09	2015	06	17	09	18	f	18	r	6.12116286298	1	138	0.651766218012	0.808184475964	tactile	left	left	tactile	NA	381.278308807	FALSE	FALSE	FALSE	FALSE	TRUE	0
p09	2015	06	17	09	18	f	18	r	6.12116286298	1	139	0.795373517089	1.38698897729	tactile	right	catch	visual	NA	NA	FALSE	FALSE	FALSE	FALSE	TRUE	0
p09	2015	06	17	09	18	f	18	r	6.12116286298	1	140	0.899780978914	0.962127576483	visual	left	left	visual	NA	412.884141086	FALSE	FALSE	FALSE	FALSE	FALSE	0
p09	2015	06	17	09	18	f	18	r	6.12116286298	1	141	0.762688986026	0.983324376932	tactile	right	catch	visual	NA	NA	FALSE	FALSE	FALSE	FALSE	TRUE	0
p09	2015	06	17	09	18	f	18	r	6.12116286298	1	142	1.08979639388	1.08474760215	visual	left	catch	tactile	NA	NA	FALSE	FALSE	FALSE	FALSE	FALSE	0
p09	2015	06	17	09	18	f	18	r	6.12116286298	1	143	0.827628590167	0.740818533116	visual	left	right	tactile	NA	344.774212455	FALSE	FALSE	FALSE	FALSE	FALSE	0
p09	2015	06	17	09	18	f	18	r	6.12116286298	1	144	1.01788328309	1.41254882838	visual	right	left	visual	NA	347.115684068	FALSE	FALSE	FALSE	FALSE	FALSE	0
p09	2015	06	17	09	18	f	18	r	6.12116286298	1	145	0.945389413042	0.673810570339	tactile	right	left	tactile	NA	305.513077416	FALSE	FALSE	FALSE	FALSE	FALSE	0
p09	2015	06	17	09	18	f	18	r	6.12116286298	1	146	0.883717087097	0.852807109667	tactile	left	left	tactile	NA	251.250789966	FALSE	FALSE	FALSE	FALSE	TRUE	0
p09	2015	06	17	09	18	f	18	r	6.12116286298	1	147	0.868701772997	1.15376431764	tactile	left	right	visual	NA	445.599081926	FALSE	FALSE	FALSE	FALSE	TRUE	0
p09	2015	06	17	09	18	f	18	r	6.12116286298	1	148	1.39597220183	1.23816702267	visual	left	left	tactile	NA	240.185922012	FALSE	FALSE	FALSE	FALSE	TRUE	0
p09	2015	06	17	09	18	f	18	r	6.12116286298	1	149	1.35388349695	0.727053305626	tactile	right	left	tactile	NA	245.800169185	FALSE	FALSE	FALSE	FALSE	FALSE	0
p09	2015	06	17	09	18	f	18	r	6.12116286298	1	150	0.809849611018	0.604343613151	visual	left	left	tactile	NA	317.471739603	FALSE	FALSE	FALSE	FALSE	TRUE	0
p09	2015	06	17	09	18	f	18	r	6.12116286298	1	151	0.857232364127	1.45588343363	visual	right	right	visual	NA	286.072758026	FALSE	FALSE	FALSE	FALSE	TRUE	0
p09	2015	06	17	09	18	f	18	r	6.12116286298	1	152	0.942089547869	0.630953354694	tactile	left	right	tactile	NA	428.587066941	FALSE	FALSE	FALSE	FALSE	FALSE	0
p09	2015	06	17	09	18	f	18	r	6.12116286298	1	153	0.993001088034	1.09677974484	tactile	right	left	visual	NA	51.7242497299	FALSE	FALSE	FALSE	FALSE	FALSE	0
p09	2015	06	17	09	18	f	18	r	6.12116286298	1	154	1.10456563509	1.40877699313	visual	right	left	tactile	voice	NA	TRUE	FALSE	FALSE	FALSE	FALSE	0
p09	2015	06	17	09	18	f	18	r	6.12116286298	1	155	0.996433465974	1.17391908916	visual	right	right	visual	NA	342.192325508	FALSE	FALSE	FALSE	FALSE	FALSE	0
p09	2015	06	17	09	18	f	18	r	6.12116286298	1	156	0.781323796138	0.703756894504	visual	right	right	visual	NA	399.767598137	FALSE	FALSE	FALSE	FALSE	FALSE	0
p09	2015	06	17	09	18	f	18	r	6.12116286298	1	157	0.880265922053	1.02675224302	visual	left	left	visual	NA	302.087453427	FALSE	FALSE	FALSE	FALSE	FALSE	0
p09	2015	06	17	09	18	f	18	r	6.12116286298	1	158	0.760908536846	1.06869125533	tactile	left	left	tactile	NA	293.599570403	FALSE	FALSE	FALSE	FALSE	TRUE	0
p09	2015	06	17	09	18	f	18	r	6.12116286298	1	159	0.741235524183	1.3899646642	visual	right	left	visual	NA	293.994311476	FALSE	FALSE	FALSE	FALSE	FALSE	0
p09	2015	06	17	09	18	f	18	r	6.12116286298	1	160	0.693361141952	1.11646246951	visual	left	left	visual	NA	321.042035939	FALSE	FALSE	FALSE	FALSE	TRUE	0
p09	2015	06	17	09	18	f	18	r	57.4468418669	2	1	2.98118017591	1.25999429664	visual	right	right	visual	NA	320.741800126	FALSE	FALSE	FALSE	FALSE	FALSE	0
p09	2015	06	17	09	18	f	18	r	57.4468418669	2	2	0.913058476057	1.01879146011	tactile	left	right	tactile	NA	258.149204543	FALSE	FALSE	FALSE	FALSE	FALSE	0
p09	2015	06	17	09	18	f	18	r	57.4468418669	2	3	0.982941005845	1.09497818097	visual	left	catch	visual	NA	NA	FALSE	FALSE	FALSE	FALSE	FALSE	0
p09	2015	06	17	09	18	f	18	r	57.4468418669	2	4	0.652422291925	1.4269635931	visual	right	catch	tactile	NA	NA	FALSE	FALSE	FALSE	FALSE	TRUE	0
p09	2015	06	17	09	18	f	18	r	57.4468418669	2	5	1.18386046099	0.805976745245	tactile	left	right	tactile	NA	279.094648547	FALSE	FALSE	FALSE	FALSE	FALSE	0
p09	2015	06	17	09	18	f	18	r	57.4468418669	2	6	0.956032759976	1.06187795034	visual	left	right	visual	NA	343.137641205	FALSE	FALSE	FALSE	FALSE	FALSE	0
p09	2015	06	17	09	18	f	18	r	57.4468418669	2	7	1.86937043606	0.723037999461	visual	right	left	tactile	NA	283.229025314	FALSE	FALSE	FALSE	FALSE	FALSE	0
p09	2015	06	17	09	18	f	18	r	57.4468418669	2	8	0.88520569005	0.50139718156	visual	right	right	tactile	NA	297.552910168	FALSE	FALSE	FALSE	FALSE	TRUE	0
p09	2015	06	17	09	18	f	18	r	57.4468418669	2	9	0.977766684955	1.23449971764	visual	right	right	visual	NA	254.47509205	FALSE	FALSE	FALSE	FALSE	TRUE	0
p09	2015	06	17	09	18	f	18	r	57.4468418669	2	10	0.855388928903	1.34141877604	visual	left	left	tactile	NA	252.886364702	FALSE	FALSE	FALSE	FALSE	TRUE	0
p09	2015	06	17	09	18	f	18	r	57.4468418669	2	11	0.986539180158	1.34597690632	tactile	left	catch	visual	NA	NA	FALSE	FALSE	FALSE	FALSE	TRUE	0
p09	2015	06	17	09	18	f	18	r	57.4468418669	2	12	1.04517996497	1.43106078059	visual	right	left	visual	NA	327.456953237	FALSE	FALSE	FALSE	FALSE	TRUE	0
p09	2015	06	17	09	18	f	18	r	57.4468418669	2	13	1.48766115587	0.833548804796	tactile	left	left	visual	NA	295.933117857	FALSE	FALSE	FALSE	FALSE	TRUE	0
p09	2015	06	17	09	18	f	18	r	57.4468418669	2	14	0.989147203974	1.12268103035	tactile	left	right	tactile	NA	231.119155418	FALSE	FALSE	FALSE	FALSE	FALSE	0
p09	2015	06	17	09	18	f	18	r	57.4468418669	2	15	1.06478823	1.16610456702	visual	left	left	tactile	NA	241.705734748	FALSE	FALSE	FALSE	FALSE	FALSE	0
p09	2015	06	17	09	18	f	18	r	57.4468418669	2	16	1.08030934585	0.830321558929	tactile	right	catch	visual	NA	138.04318849	FALSE	FALSE	FALSE	FALSE	TRUE	0
p09	2015	06	17	09	18	f	18	r	57.4468418669	2	17	1.02000032295	1.2186800486	tactile	right	right	visual	NA	394.765702076	FALSE	FALSE	FALSE	FALSE	TRUE	0
p09	2015	06	17	09	18	f	18	r	57.4468418669	2	18	0.999621497933	0.660822405251	visual	left	left	visual	NA	270.962606184	FALSE	FALSE	FALSE	FALSE	FALSE	0
p09	2015	06	17	09	18	f	18	r	57.4468418669	2	19	1.04698886094	1.232404082	tactile	right	right	visual	NA	316.334655508	FALSE	FALSE	FALSE	FALSE	FALSE	0
p09	2015	06	17	09	18	f	18	r	57.4468418669	2	20	0.829218090978	0.942693706152	visual	left	right	visual	NA	302.456401289	FALSE	FALSE	FALSE	FALSE	TRUE	0
p09	2015	06	17	09	18	f	18	r	57.4468418669	2	21	0.924923704937	0.923735778985	tactile	left	left	visual	NA	304.795755539	FALSE	FALSE	FALSE	FALSE	TRUE	0
p09	2015	06	17	09	18	f	18	r	57.4468418669	2	22	0.9086503	0.88233200416	tactile	right	right	tactile	NA	250.025962479	FALSE	FALSE	FALSE	FALSE	FALSE	0
p09	2015	06	17	09	18	f	18	r	57.4468418669	2	23	1.01809926098	0.531677183784	tactile	right	left	tactile	NA	251.018566079	FALSE	FALSE	FALSE	FALSE	TRUE	0
p09	2015	06	17	09	18	f	18	r	57.4468418669	2	24	0.871431164909	1.03022444422	visual	left	left	visual	NA	277.233396424	FALSE	FALSE	FALSE	FALSE	TRUE	0
p09	2015	06	17	09	18	f	18	r	57.4468418669	2	25	0.84480526601	0.880523464968	visual	left	right	tactile	NA	273.420568788	FALSE	FALSE	FALSE	FALSE	FALSE	0
p09	2015	06	17	09	18	f	18	r	57.4468418669	2	26	0.817083457019	0.686985152261	visual	right	left	tactile	NA	261.702620191	FALSE	FALSE	FALSE	FALSE	TRUE	0
p09	2015	06	17	09	18	f	18	r	57.4468418669	2	27	0.837044395041	1.22223204618	visual	right	right	visual	NA	299.112491542	FALSE	FALSE	FALSE	FALSE	FALSE	0
p09	2015	06	17	09	18	f	18	r	57.4468418669	2	28	1.02394983312	0.614387601502	tactile	left	left	tactile	NA	301.954088965	FALSE	FALSE	FALSE	FALSE	FALSE	0
p09	2015	06	17	09	18	f	18	r	57.4468418669	2	29	0.908822010038	1.14399389817	visual	left	left	visual	NA	332.242985489	FALSE	FALSE	FALSE	FALSE	TRUE	0
p09	2015	06	17	09	18	f	18	r	57.4468418669	2	30	0.870664063143	1.22459809932	visual	left	left	visual	NA	268.928934354	FALSE	FALSE	FALSE	FALSE	FALSE	0
p09	2015	06	17	09	18	f	18	r	57.4468418669	2	31	1.24492002302	1.20995843983	visual	left	left	visual	NA	240.812278586	FALSE	FALSE	FALSE	FALSE	FALSE	0
p09	2015	06	17	09	18	f	18	r	57.4468418669	2	32	0.914262779057	1.05227747584	tactile	right	right	tactile	NA	239.299391862	FALSE	FALSE	FALSE	FALSE	TRUE	0
p09	2015	06	17	09	18	f	18	r	57.4468418669	2	33	1.02704618801	1.27142075253	tactile	left	left	visual	NA	210.072368849	FALSE	FALSE	FALSE	FALSE	TRUE	0
p09	2015	06	17	09	18	f	18	r	57.4468418669	2	34	2.08701644419	0.849011638509	visual	left	left	visual	NA	320.893160999	FALSE	FALSE	FALSE	FALSE	FALSE	0
p09	2015	06	17	09	18	f	18	r	57.4468418669	2	35	1.25321539212	0.77527587685	visual	right	left	visual	NA	305.719982833	FALSE	FALSE	FALSE	FALSE	TRUE	0
p09	2015	06	17	09	18	f	18	r	57.4468418669	2	36	0.981207916047	1.10304307523	tactile	right	right	visual	NA	313.042565482	FALSE	FALSE	FALSE	FALSE	TRUE	0
p09	2015	06	17	09	18	f	18	r	57.4468418669	2	37	0.996168565936	1.01641146059	tactile	right	right	tactile	NA	254.709252855	FALSE	FALSE	FALSE	FALSE	TRUE	0
p09	2015	06	17	09	18	f	18	r	57.4468418669	2	38	1.07431282289	0.636392027595	visual	right	left	visual	NA	302.401441848	FALSE	FALSE	FALSE	FALSE	FALSE	0
p09	2015	06	17	09	18	f	18	r	57.4468418669	2	39	0.983103509992	1.09763181775	tactile	left	catch	visual	NA	NA	FALSE	FALSE	FALSE	FALSE	TRUE	0
p09	2015	06	17	09	18	f	18	r	57.4468418669	2	40	0.821529078996	1.40667557904	tactile	left	right	tactile	NA	230.608683545	FALSE	FALSE	FALSE	FALSE	FALSE	0
p09	2015	06	17	09	18	f	18	r	36.034499506	2	41	2.96402438194	0.846518255068	visual	right	right	tactile	NA	307.408995461	FALSE	FALSE	FALSE	FALSE	TRUE	0
p09	2015	06	17	09	18	f	18	r	36.034499506	2	42	0.936003402108	0.770010917354	tactile	right	left	tactile	NA	272.124539129	FALSE	FALSE	FALSE	FALSE	FALSE	0
p09	2015	06	17	09	18	f	18	r	36.034499506	2	43	0.897502859123	1.12227074683	visual	left	right	tactile	NA	246.157899732	FALSE	FALSE	FALSE	FALSE	FALSE	0
p09	2015	06	17	09	18	f	18	r	36.034499506	2	44	0.825059582014	1.11708826218	tactile	left	left	visual	NA	287.784684449	FALSE	FALSE	FALSE	FALSE	FALSE	0
p09	2015	06	17	09	18	f	18	r	36.034499506	2	45	0.830182223115	0.928015987925	visual	right	right	visual	NA	296.148066875	FALSE	FALSE	FALSE	FALSE	TRUE	0
p09	2015	06	17	09	18	f	18	r	36.034499506	2	46	0.897583766142	1.17505119278	visual	right	right	tactile	NA	176.044981927	FALSE	FALSE	FALSE	FALSE	FALSE	0
p09	2015	06	17	09	18	f	18	r	36.034499506	2	47	0.931010860018	1.36815504223	tactile	right	right	tactile	NA	275.815837551	FALSE	FALSE	FALSE	FALSE	TRUE	0
p09	2015	06	17	09	18	f	18	r	36.034499506	2	48	0.76458688383	0.57513579168	visual	right	right	visual	NA	302.301554941	FALSE	FALSE	FALSE	FALSE	FALSE	0
p09	2015	06	17	09	18	f	18	r	36.034499506	2	49	0.710163308075	1.28338251356	visual	left	right	visual	NA	306.637977017	FALSE	FALSE	FALSE	FALSE	FALSE	0
p09	2015	06	17	09	18	f	18	r	36.034499506	2	50	0.776085227029	0.574636525657	tactile	left	right	visual	NA	251.747088972	FALSE	FALSE	FALSE	FALSE	FALSE	0
p09	2015	06	17	09	18	f	18	r	36.034499506	2	51	0.775187838823	1.27842109676	visual	left	left	visual	NA	337.595582707	FALSE	FALSE	FALSE	FALSE	TRUE	0
p09	2015	06	17	09	18	f	18	r	36.034499506	2	52	0.875217913883	0.717904178173	tactile	left	right	tactile	NA	225.052129244	FALSE	FALSE	FALSE	FALSE	TRUE	0
p09	2015	06	17	09	18	f	18	r	36.034499506	2	53	0.926587132039	0.825901122648	tactile	right	right	visual	NA	284.955659881	FALSE	FALSE	FALSE	FALSE	TRUE	0
p09	2015	06	17	09	18	f	18	r	36.034499506	2	54	0.73321027006	0.53730303209	visual	right	right	visual	NA	367.26884637	FALSE	FALSE	FALSE	FALSE	FALSE	0
p09	2015	06	17	09	18	f	18	r	36.034499506	2	55	0.850456398912	0.768547364877	visual	left	right	tactile	NA	130.696006818	FALSE	FALSE	FALSE	FALSE	FALSE	0
p09	2015	06	17	09	18	f	18	r	36.034499506	2	56	1.03683589702	1.21595866103	tactile	right	left	visual	NA	231.816139771	FALSE	FALSE	FALSE	FALSE	TRUE	0
p09	2015	06	17	09	18	f	18	r	36.034499506	2	57	0.921454316936	1.14671955125	visual	right	right	tactile	NA	242.006640416	FALSE	FALSE	FALSE	FALSE	TRUE	0
p09	2015	06	17	09	18	f	18	r	36.034499506	2	58	0.857806560118	1.19677605231	visual	left	catch	tactile	NA	NA	FALSE	FALSE	FALSE	FALSE	FALSE	0
p09	2015	06	17	09	18	f	18	r	36.034499506	2	59	0.905483404873	1.21965843912	visual	left	right	visual	NA	270.525305532	FALSE	FALSE	FALSE	FALSE	FALSE	0
p09	2015	06	17	09	18	f	18	r	36.034499506	2	60	0.891427873168	1.10207401833	visual	left	right	tactile	NA	44.6761911735	FALSE	FALSE	FALSE	FALSE	FALSE	0
p09	2015	06	17	09	18	f	18	r	36.034499506	2	61	1.08847090998	0.832480097662	tactile	left	right	visual	NA	326.234881068	FALSE	FALSE	FALSE	FALSE	TRUE	0
p09	2015	06	17	09	18	f	18	r	36.034499506	2	62	1.07913364307	0.975124348623	tactile	right	left	visual	NA	209.855255904	FALSE	FALSE	FALSE	FALSE	FALSE	0
p09	2015	06	17	09	18	f	18	r	36.034499506	2	63	1.01153047103	0.80982090965	visual	left	left	tactile	NA	289.278387791	FALSE	FALSE	FALSE	FALSE	TRUE	0
p09	2015	06	17	09	18	f	18	r	36.034499506	2	64	0.831043902086	1.34628920058	tactile	left	right	visual	NA	305.392554263	FALSE	FALSE	FALSE	FALSE	FALSE	0
p09	2015	06	17	09	18	f	18	r	36.034499506	2	65	0.89035521308	1.32540358292	visual	right	left	visual	NA	284.001119668	FALSE	FALSE	FALSE	FALSE	TRUE	0
p09	2015	06	17	09	18	f	18	r	36.034499506	2	66	0.802818353986	1.09586713106	visual	right	left	tactile	NA	233.609792544	FALSE	FALSE	FALSE	FALSE	FALSE	0
p09	2015	06	17	09	18	f	18	r	36.034499506	2	67	1.04767742311	1.21619743996	visual	right	left	tactile	NA	235.731927678	FALSE	FALSE	FALSE	FALSE	FALSE	0
p09	2015	06	17	09	18	f	18	r	36.034499506	2	68	0.955296162982	0.853518650001	visual	right	right	tactile	NA	363.661913667	FALSE	FALSE	FALSE	FALSE	TRUE	0
p09	2015	06	17	09	18	f	18	r	36.034499506	2	69	0.815142443869	0.59074346534	tactile	right	right	tactile	NA	319.556256291	FALSE	FALSE	FALSE	FALSE	FALSE	0
p09	2015	06	17	09	18	f	18	r	36.034499506	2	70	0.636821448104	0.699454380842	visual	right	left	tactile	NA	235.301947687	FALSE	FALSE	FALSE	FALSE	TRUE	0
p09	2015	06	17	09	18	f	18	r	36.034499506	2	71	0.908043811098	0.750033626498	visual	left	catch	visual	NA	NA	FALSE	FALSE	FALSE	FALSE	TRUE	0
p09	2015	06	17	09	18	f	18	r	36.034499506	2	72	0.806091160048	0.538831821251	tactile	left	left	visual	NA	279.150537448	FALSE	FALSE	FALSE	FALSE	TRUE	0
p09	2015	06	17	09	18	f	18	r	36.034499506	2	73	0.649898116011	1.44789805492	visual	right	left	tactile	NA	255.172919482	FALSE	FALSE	FALSE	FALSE	FALSE	0
p09	2015	06	17	09	18	f	18	r	36.034499506	2	74	0.823885137215	0.635798768563	visual	right	left	visual	NA	304.07289695	FALSE	FALSE	FALSE	FALSE	TRUE	0
p09	2015	06	17	09	18	f	18	r	36.034499506	2	75	0.749624757096	0.955199547685	visual	right	catch	visual	NA	NA	FALSE	FALSE	FALSE	FALSE	FALSE	0
p09	2015	06	17	09	18	f	18	r	36.034499506	2	76	0.721411651	0.735699662071	visual	left	right	visual	NA	276.83672565	FALSE	FALSE	FALSE	FALSE	TRUE	0
p09	2015	06	17	09	18	f	18	r	36.034499506	2	77	0.768285814906	1.1175599183	tactile	right	right	tactile	NA	254.688147455	FALSE	FALSE	FALSE	FALSE	TRUE	0
p09	2015	06	17	09	18	f	18	r	36.034499506	2	78	0.676634246949	1.31264613125	tactile	left	left	tactile	NA	286.309555406	FALSE	FALSE	FALSE	TRUE	TRUE	0
p09	2015	06	17	09	18	f	18	r	36.034499506	2	79	0.693593599135	0.575654136266	visual	left	left	tactile	NA	392.871069489	FALSE	FALSE	FALSE	FALSE	FALSE	0
p09	2015	06	17	09	18	f	18	r	36.034499506	2	80	0.532374192961	0.81265549119	tactile	left	right	visual	NA	438.639115309	FALSE	FALSE	FALSE	FALSE	TRUE	0
p09	2015	06	17	09	18	f	18	r	4.75108564692	2	81	2.82001041598	1.25964379637	tactile	right	right	tactile	NA	257.423943141	FALSE	FALSE	FALSE	FALSE	FALSE	0
p09	2015	06	17	09	18	f	18	r	4.75108564692	2	82	0.628738383995	0.525104489365	visual	left	right	tactile	NA	314.005429158	FALSE	FALSE	FALSE	FALSE	FALSE	0
p09	2015	06	17	09	18	f	18	r	4.75108564692	2	83	0.801593089011	1.28468747175	tactile	left	left	tactile	NA	261.902542785	FALSE	FALSE	FALSE	FALSE	FALSE	0
p09	2015	06	17	09	18	f	18	r	4.75108564692	2	84	0.629982335027	1.13516315376	tactile	right	left	tactile	NA	246.685411781	FALSE	FALSE	FALSE	FALSE	FALSE	0
p09	2015	06	17	09	18	f	18	r	4.75108564692	2	85	0.465348224156	1.49008395338	visual	left	right	tactile	NA	347.322659101	FALSE	FALSE	FALSE	FALSE	FALSE	0
p09	2015	06	17	09	18	f	18	r	4.75108564692	2	86	0.561936656944	0.57463588192	tactile	left	right	tactile	NA	746.358467499	FALSE	FALSE	FALSE	FALSE	FALSE	0
p09	2015	06	17	09	18	f	18	r	4.75108564692	2	87	3.83159452514	1.12173026375	tactile	right	catch	tactile	NA	NA	FALSE	FALSE	FALSE	FALSE	TRUE	0
p09	2015	06	17	09	18	f	18	r	4.75108564692	2	88	0.624682734953	0.578710238806	visual	right	left	tactile	NA	335.706994869	FALSE	FALSE	FALSE	FALSE	TRUE	0
p09	2015	06	17	09	18	f	18	r	4.75108564692	2	89	0.475649428088	1.16095874191	tactile	left	left	tactile	NA	298.281240975	FALSE	FALSE	FALSE	FALSE	FALSE	0
p09	2015	06	17	09	18	f	18	r	4.75108564692	2	90	0.498661361868	1.04400839854	visual	right	left	visual	NA	324.719447177	FALSE	FALSE	FALSE	FALSE	FALSE	0
p09	2015	06	17	09	18	f	18	r	4.75108564692	2	91	0.474518592004	0.90841302658	visual	left	right	visual	NA	270.72662022	FALSE	FALSE	FALSE	FALSE	FALSE	0
p09	2015	06	17	09	18	f	18	r	4.75108564692	2	92	0.560531293042	0.501828222176	tactile	left	catch	tactile	NA	NA	FALSE	FALSE	FALSE	FALSE	TRUE	0
p09	2015	06	17	09	18	f	18	r	4.75108564692	2	93	0.524215108948	0.663101669593	visual	left	right	tactile	NA	337.8088139	FALSE	FALSE	FALSE	FALSE	FALSE	0
p09	2015	06	17	09	18	f	18	r	4.75108564692	2	94	0.453193328111	0.510989631106	tactile	left	left	visual	NA	364.522192627	FALSE	FALSE	FALSE	FALSE	FALSE	0
p09	2015	06	17	09	18	f	18	r	4.75108564692	2	95	0.575843809871	0.717309681805	tactile	left	left	tactile	NA	302.254423965	FALSE	FALSE	FALSE	FALSE	FALSE	0
p09	2015	06	17	09	18	f	18	r	4.75108564692	2	96	0.467757808045	0.897922957563	visual	right	right	tactile	NA	249.828116037	FALSE	FALSE	FALSE	FALSE	FALSE	0
p09	2015	06	17	09	18	f	18	r	4.75108564692	2	97	0.477569135139	0.648604328922	visual	right	right	tactile	NA	343.83166465	FALSE	FALSE	FALSE	FALSE	FALSE	0
p09	2015	06	17	09	18	f	18	r	4.75108564692	2	98	0.546698575839	0.709592253932	visual	right	right	tactile	NA	243.380507687	FALSE	FALSE	FALSE	FALSE	FALSE	0
p09	2015	06	17	09	18	f	18	r	4.75108564692	2	99	0.576891429955	1.44562235699	tactile	left	right	tactile	NA	225.459937705	FALSE	FALSE	FALSE	FALSE	TRUE	0
p09	2015	06	17	09	18	f	18	r	4.75108564692	2	100	1.0704505539	1.40227369042	tactile	right	right	visual	NA	375.888554147	FALSE	FALSE	FALSE	FALSE	FALSE	0
p09	2015	06	17	09	18	f	18	r	4.75108564692	2	101	2.14283709484	1.18301710121	visual	left	left	tactile	NA	243.239776464	FALSE	FALSE	FALSE	FALSE	FALSE	0
p09	2015	06	17	09	18	f	18	r	4.75108564692	2	102	0.769497266039	0.757896658249	visual	left	left	tactile	NA	255.68305538	FALSE	FALSE	FALSE	FALSE	FALSE	0
p09	2015	06	17	09	18	f	18	r	4.75108564692	2	103	1.0035122328	0.535823009066	tactile	left	left	tactile	NA	268.781181658	FALSE	FALSE	FALSE	FALSE	FALSE	0
p09	2015	06	17	09	18	f	18	r	4.75108564692	2	104	0.740179940127	1.15859695751	tactile	right	left	visual	voice	NA	TRUE	FALSE	FALSE	FALSE	TRUE	0
p09	2015	06	17	09	18	f	18	r	4.75108564692	2	105	1.77385682194	0.694328042012	visual	right	right	visual	NA	323.05344264	FALSE	FALSE	FALSE	FALSE	TRUE	0
p09	2015	06	17	09	18	f	18	r	4.75108564692	2	106	0.757588272914	1.33607341097	visual	left	right	tactile	NA	210.60236264	FALSE	FALSE	FALSE	FALSE	FALSE	0
p09	2015	06	17	09	18	f	18	r	4.75108564692	2	107	0.788233509986	0.962027197929	tactile	right	right	visual	NA	410.164054716	FALSE	FALSE	FALSE	FALSE	TRUE	0
p09	2015	06	17	09	18	f	18	r	4.75108564692	2	108	0.736842348939	0.814614121417	tactile	right	right	tactile	NA	387.596442364	FALSE	FALSE	FALSE	FALSE	FALSE	0
p09	2015	06	17	09	18	f	18	r	4.75108564692	2	109	0.679509588983	0.58928831391	tactile	right	left	tactile	NA	235.469445586	FALSE	FALSE	FALSE	FALSE	TRUE	0
p09	2015	06	17	09	18	f	18	r	4.75108564692	2	110	0.658059326932	0.766243506108	visual	left	left	visual	NA	324.939137558	FALSE	FALSE	FALSE	FALSE	TRUE	0
p09	2015	06	17	09	18	f	18	r	4.75108564692	2	111	0.658225000137	0.924623134969	tactile	left	left	tactile	NA	260.854159715	FALSE	FALSE	FALSE	FALSE	FALSE	0
p09	2015	06	17	09	18	f	18	r	4.75108564692	2	112	0.609516490949	0.548649978314	tactile	right	right	visual	NA	430.030000396	FALSE	FALSE	FALSE	FALSE	FALSE	0
p09	2015	06	17	09	18	f	18	r	4.75108564692	2	113	0.527369773015	0.529275796182	visual	left	right	tactile	NA	259.49824648	FALSE	FALSE	FALSE	FALSE	TRUE	0
p09	2015	06	17	09	18	f	18	r	4.75108564692	2	114	0.653576230165	0.970587244396	tactile	right	left	visual	NA	176.383002196	FALSE	FALSE	FALSE	FALSE	FALSE	0
p09	2015	06	17	09	18	f	18	r	4.75108564692	2	115	0.592285200022	1.45798475426	visual	right	left	tactile	NA	254.406329244	FALSE	FALSE	FALSE	FALSE	FALSE	0
p09	2015	06	17	09	18	f	18	r	4.75108564692	2	116	0.780587814981	0.891107716008	visual	left	right	visual	NA	295.229809824	FALSE	FALSE	FALSE	FALSE	TRUE	0
p09	2015	06	17	09	18	f	18	r	4.75108564692	2	117	0.556601884076	1.25267610021	tactile	right	left	tactile	NA	234.339809278	FALSE	FALSE	FALSE	FALSE	FALSE	0
p09	2015	06	17	09	18	f	18	r	4.75108564692	2	118	0.646020085085	1.36548176786	tactile	left	left	tactile	NA	258.858358953	FALSE	FALSE	FALSE	FALSE	TRUE	0
p09	2015	06	17	09	18	f	18	r	4.75108564692	2	119	0.560579762096	0.95984551352	tactile	right	left	visual	NA	298.579561058	FALSE	FALSE	FALSE	FALSE	TRUE	0
p09	2015	06	17	09	18	f	18	r	4.75108564692	2	120	0.754741637968	0.648661606023	tactile	left	right	visual	NA	NA	FALSE	FALSE	FALSE	FALSE	FALSE	0
p09	2015	06	17	09	18	f	18	r	28.5154778711	2	121	7.16255837912	1.19254849543	visual	left	left	tactile	NA	309.004188282	FALSE	FALSE	FALSE	FALSE	TRUE	0
p09	2015	06	17	09	18	f	18	r	28.5154778711	2	122	0.528334578965	1.45149823799	tactile	left	left	visual	NA	318.975660717	FALSE	FALSE	FALSE	FALSE	FALSE	0
p09	2015	06	17	09	18	f	18	r	28.5154778711	2	123	0.45612129895	1.25433070914	tactile	right	left	visual	NA	265.424392652	FALSE	FALSE	FALSE	FALSE	FALSE	0
p09	2015	06	17	09	18	f	18	r	28.5154778711	2	124	0.463249093853	1.04250657323	tactile	left	right	visual	NA	258.660089225	FALSE	FALSE	FALSE	FALSE	FALSE	0
p09	2015	06	17	09	18	f	18	r	28.5154778711	2	125	0.535710675875	0.849466054585	tactile	left	right	tactile	NA	252.963087987	FALSE	FALSE	FALSE	FALSE	FALSE	0
p09	2015	06	17	09	18	f	18	r	28.5154778711	2	126	0.515125275822	0.676205734272	tactile	right	right	tactile	NA	430.34332525	FALSE	FALSE	FALSE	FALSE	FALSE	0
p09	2015	06	17	09	18	f	18	r	28.5154778711	2	127	0.548704392044	0.970574255103	visual	left	right	visual	NA	525.78436234	FALSE	FALSE	FALSE	FALSE	TRUE	0
p09	2015	06	17	09	18	f	18	r	28.5154778711	2	128	0.428799391957	1.29894911117	visual	left	left	visual	NA	180.590005359	FALSE	FALSE	FALSE	FALSE	FALSE	0
p09	2015	06	17	09	18	f	18	r	28.5154778711	2	129	0.506470612017	0.960742658734	visual	left	right	visual	NA	287.430572091	FALSE	FALSE	FALSE	FALSE	TRUE	0
p09	2015	06	17	09	18	f	18	r	28.5154778711	2	130	4.34605643898	1.38292678589	visual	left	left	tactile	NA	196.68955775	FALSE	FALSE	FALSE	FALSE	TRUE	0
p09	2015	06	17	09	18	f	18	r	28.5154778711	2	131	0.631202277029	0.843016944558	tactile	left	catch	tactile	NA	NA	FALSE	FALSE	FALSE	FALSE	TRUE	0
p09	2015	06	17	09	18	f	18	r	28.5154778711	2	132	0.703420315869	0.742292143604	visual	right	right	visual	NA	335.132620996	FALSE	FALSE	FALSE	FALSE	FALSE	0
p09	2015	06	17	09	18	f	18	r	28.5154778711	2	133	0.572024419904	0.628087599288	tactile	right	left	visual	NA	339.628086425	FALSE	FALSE	FALSE	FALSE	TRUE	0
p09	2015	06	17	09	18	f	18	r	28.5154778711	2	134	0.482791004004	1.42221206692	tactile	left	left	visual	NA	313.323646784	FALSE	FALSE	FALSE	FALSE	TRUE	0
p09	2015	06	17	09	18	f	18	r	28.5154778711	2	135	0.542125552194	0.529803882107	tactile	right	left	tactile	NA	408.483610488	FALSE	FALSE	FALSE	FALSE	FALSE	0
p09	2015	06	17	09	18	f	18	r	28.5154778711	2	136	0.754484749166	1.14082755359	tactile	left	right	visual	NA	334.226020146	FALSE	FALSE	FALSE	TRUE	TRUE	0
p09	2015	06	17	09	18	f	18	r	28.5154778711	2	137	0.610566725023	0.765555306443	tactile	right	left	tactile	NA	343.929372262	FALSE	FALSE	FALSE	FALSE	TRUE	0
p09	2015	06	17	09	18	f	18	r	28.5154778711	2	138	0.536926951027	0.720439119805	visual	right	left	visual	NA	868.927753996	FALSE	FALSE	FALSE	FALSE	TRUE	0
p09	2015	06	17	09	18	f	18	r	28.5154778711	2	139	0.623716221889	1.46808813328	visual	right	left	visual	NA	356.278929394	FALSE	FALSE	FALSE	FALSE	TRUE	0
p09	2015	06	17	09	18	f	18	r	28.5154778711	2	140	0.490380915813	1.00163589166	tactile	left	right	visual	NA	411.050955998	FALSE	FALSE	FALSE	FALSE	TRUE	0
p09	2015	06	17	09	18	f	18	r	28.5154778711	2	141	0.950485774083	1.40721650286	tactile	right	left	visual	NA	305.598465726	FALSE	FALSE	FALSE	FALSE	FALSE	0
p09	2015	06	17	09	18	f	18	r	28.5154778711	2	142	4.26207354106	1.15610058607	visual	right	left	visual	NA	320.115053561	FALSE	FALSE	FALSE	FALSE	FALSE	0
p09	2015	06	17	09	18	f	18	r	28.5154778711	2	143	0.618728280999	0.895188038359	tactile	left	left	visual	NA	326.112869196	FALSE	FALSE	FALSE	FALSE	TRUE	0
p09	2015	06	17	09	18	f	18	r	28.5154778711	2	144	0.640445286175	1.27348490222	tactile	right	right	visual	NA	483.817637432	FALSE	FALSE	FALSE	FALSE	TRUE	0
p09	2015	06	17	09	18	f	18	r	28.5154778711	2	145	0.521838763962	1.01520378658	tactile	left	right	tactile	NA	343.111979077	FALSE	FALSE	FALSE	FALSE	TRUE	0
p09	2015	06	17	09	18	f	18	r	28.5154778711	2	146	4.18558236188	1.46509864167	visual	right	catch	visual	NA	NA	FALSE	FALSE	FALSE	FALSE	FALSE	0
p09	2015	06	17	09	18	f	18	r	28.5154778711	2	147	1.02689807187	0.822447892169	tactile	right	left	visual	NA	282.86489239	FALSE	FALSE	FALSE	FALSE	TRUE	0
p09	2015	06	17	09	18	f	18	r	28.5154778711	2	148	0.679264376871	0.968510340484	tactile	right	left	tactile	NA	275.328271324	FALSE	FALSE	FALSE	TRUE	TRUE	0
p09	2015	06	17	09	18	f	18	r	28.5154778711	2	149	0.68781619193	0.626769786589	tactile	left	left	tactile	NA	402.877217857	FALSE	FALSE	FALSE	FALSE	TRUE	0
p09	2015	06	17	09	18	f	18	r	28.5154778711	2	150	0.625974084949	0.51278333446	tactile	left	right	visual	NA	453.057854204	FALSE	FALSE	FALSE	FALSE	TRUE	0
p09	2015	06	17	09	18	f	18	r	28.5154778711	2	151	0.667153154034	0.878651155504	visual	right	right	tactile	NA	271.626620088	FALSE	FALSE	FALSE	FALSE	FALSE	0
p09	2015	06	17	09	18	f	18	r	28.5154778711	2	152	0.576535045868	1.26826047733	visual	right	left	tactile	NA	304.812005255	FALSE	FALSE	FALSE	FALSE	TRUE	0
p09	2015	06	17	09	18	f	18	r	28.5154778711	2	153	0.520817585988	1.41129043581	tactile	right	catch	tactile	NA	NA	FALSE	FALSE	FALSE	TRUE	TRUE	0
p09	2015	06	17	09	18	f	18	r	28.5154778711	2	154	0.603358210064	0.827647910941	visual	left	left	tactile	NA	255.962370662	FALSE	FALSE	FALSE	FALSE	TRUE	0
p09	2015	06	17	09	18	f	18	r	28.5154778711	2	155	0.506893147016	0.992055913408	visual	right	catch	tactile	NA	NA	FALSE	FALSE	FALSE	FALSE	TRUE	0
p09	2015	06	17	09	18	f	18	r	28.5154778711	2	156	0.987246375997	0.74697923735	visual	left	catch	tactile	NA	NA	FALSE	FALSE	FALSE	FALSE	TRUE	0
p09	2015	06	17	09	18	f	18	r	28.5154778711	2	157	0.663693547016	1.10245556889	tactile	right	catch	visual	NA	NA	FALSE	FALSE	FALSE	FALSE	TRUE	0
p09	2015	06	17	09	18	f	18	r	28.5154778711	2	158	0.802517755888	0.750779077566	visual	right	right	visual	NA	437.528893119	FALSE	FALSE	FALSE	FALSE	TRUE	0
p09	2015	06	17	09	18	f	18	r	28.5154778711	2	159	0.619139778195	1.39558063021	tactile	right	right	visual	NA	391.291838372	FALSE	FALSE	FALSE	FALSE	TRUE	0
p09	2015	06	17	09	18	f	18	r	28.5154778711	2	160	0.438397636171	1.44650176343	tactile	right	left	tactile	NA	240.46357302	FALSE	FALSE	FALSE	TRUE	TRUE	0
p09	2015	06	17	09	18	f	18	r	77.9406229141	3	1	30.1523552791	0.543701286166	visual	right	right	visual	NA	400.41299141	FALSE	FALSE	FALSE	FALSE	TRUE	0
p09	2015	06	17	09	18	f	18	r	77.9406229141	3	2	2.04523588112	1.29951073663	tactile	right	right	tactile	NA	156.257593771	FALSE	FALSE	FALSE	FALSE	FALSE	0
p09	2015	06	17	09	18	f	18	r	77.9406229141	3	3	1.21702388092	0.87453976158	tactile	left	right	tactile	NA	237.950541079	FALSE	FALSE	FALSE	FALSE	FALSE	0
p09	2015	06	17	09	18	f	18	r	77.9406229141	3	4	0.74130441295	0.784357766696	visual	right	catch	tactile	NA	NA	FALSE	FALSE	FALSE	FALSE	FALSE	0
p09	2015	06	17	09	18	f	18	r	77.9406229141	3	5	1.62627581717	0.73463846184	tactile	right	catch	tactile	NA	460.183546878	FALSE	FALSE	FALSE	FALSE	FALSE	0
p09	2015	06	17	09	18	f	18	r	77.9406229141	3	6	3.59316377901	0.71854184619	tactile	right	left	visual	NA	314.720327267	FALSE	FALSE	FALSE	FALSE	TRUE	0
p09	2015	06	17	09	18	f	18	r	77.9406229141	3	7	1.15214506187	1.39345820479	visual	right	right	tactile	NA	226.1236466	FALSE	FALSE	FALSE	FALSE	TRUE	0
p09	2015	06	17	09	18	f	18	r	77.9406229141	3	8	0.818896356039	1.09733988827	tactile	right	left	visual	NA	284.655447351	FALSE	FALSE	FALSE	FALSE	FALSE	0
p09	2015	06	17	09	18	f	18	r	77.9406229141	3	9	0.647236410994	1.45826983008	tactile	left	right	tactile	NA	230.666416697	FALSE	FALSE	FALSE	FALSE	TRUE	0
p09	2015	06	17	09	18	f	18	r	77.9406229141	3	10	0.664351665881	0.503863081627	visual	right	right	tactile	NA	252.938901074	FALSE	FALSE	FALSE	FALSE	FALSE	0
p09	2015	06	17	09	18	f	18	r	77.9406229141	3	11	0.683471414959	1.42567121648	visual	left	left	visual	NA	289.737518178	FALSE	FALSE	FALSE	FALSE	TRUE	0
p09	2015	06	17	09	18	f	18	r	77.9406229141	3	12	0.874946860829	0.526641991069	visual	right	left	tactile	NA	251.178143779	FALSE	FALSE	FALSE	FALSE	FALSE	0
p09	2015	06	17	09	18	f	18	r	77.9406229141	3	13	0.595795399975	1.1545207837	visual	left	left	visual	NA	209.656737745	FALSE	FALSE	FALSE	FALSE	TRUE	0
p09	2015	06	17	09	18	f	18	r	77.9406229141	3	14	0.663780269912	0.83526445603	visual	right	right	tactile	NA	250.536802458	FALSE	FALSE	FALSE	FALSE	TRUE	0
p09	2015	06	17	09	18	f	18	r	77.9406229141	3	15	0.58372243098	1.05756745938	visual	right	catch	visual	NA	NA	FALSE	FALSE	FALSE	FALSE	TRUE	0
p09	2015	06	17	09	18	f	18	r	77.9406229141	3	16	0.746926021064	0.980375135784	tactile	left	right	tactile	NA	265.605669701	FALSE	FALSE	FALSE	FALSE	FALSE	0
p09	2015	06	17	09	18	f	18	r	77.9406229141	3	17	0.542182926089	0.879998802474	visual	left	right	tactile	NA	230.791754089	FALSE	FALSE	FALSE	TRUE	TRUE	0
p09	2015	06	17	09	18	f	18	r	77.9406229141	3	18	0.489758237032	0.778902896785	tactile	left	right	tactile	NA	214.954576921	FALSE	FALSE	FALSE	FALSE	TRUE	0
p09	2015	06	17	09	18	f	18	r	77.9406229141	3	19	0.51201054384	0.972957148239	visual	left	right	tactile	NA	228.46781835	FALSE	FALSE	FALSE	FALSE	FALSE	0
p09	2015	06	17	09	18	f	18	r	77.9406229141	3	20	0.484459407162	1.29366840113	tactile	left	right	tactile	NA	273.766545346	FALSE	FALSE	FALSE	FALSE	FALSE	0
p09	2015	06	17	09	18	f	18	r	77.9406229141	3	21	0.492080770899	1.46969423883	tactile	left	right	tactile	NA	238.385733683	FALSE	FALSE	FALSE	FALSE	TRUE	0
p09	2015	06	17	09	18	f	18	r	77.9406229141	3	22	0.47275820002	1.10705563237	visual	right	right	visual	NA	389.105880167	FALSE	FALSE	FALSE	FALSE	TRUE	0
p09	2015	06	17	09	18	f	18	r	77.9406229141	3	23	0.52742743399	0.593064839418	tactile	left	left	visual	NA	352.838107152	FALSE	FALSE	FALSE	TRUE	TRUE	0
p09	2015	06	17	09	18	f	18	r	77.9406229141	3	24	0.430001761997	1.24820863969	visual	left	left	visual	NA	45.0787660666	FALSE	FALSE	FALSE	FALSE	TRUE	0
p09	2015	06	17	09	18	f	18	r	77.9406229141	3	25	0.659082978033	1.16336133808	tactile	right	catch	visual	NA	NA	FALSE	FALSE	FALSE	FALSE	TRUE	0
p09	2015	06	17	09	18	f	18	r	77.9406229141	3	26	1.08449930209	1.11914741278	tactile	left	right	visual	NA	266.747178743	FALSE	FALSE	FALSE	FALSE	FALSE	0
p09	2015	06	17	09	18	f	18	r	77.9406229141	3	27	0.496319778962	1.36996457993	visual	left	left	tactile	NA	221.11160378	FALSE	FALSE	FALSE	FALSE	FALSE	0
p09	2015	06	17	09	18	f	18	r	77.9406229141	3	28	0.689629160101	1.29591999309	visual	left	left	tactile	NA	252.551613608	FALSE	FALSE	FALSE	FALSE	TRUE	0
p09	2015	06	17	09	18	f	18	r	77.9406229141	3	29	0.521138234995	1.30176276103	visual	left	right	tactile	NA	252.090812428	FALSE	FALSE	FALSE	FALSE	TRUE	0
p09	2015	06	17	09	18	f	18	r	77.9406229141	3	30	0.475966856116	0.634292351788	tactile	right	right	visual	NA	362.996338867	FALSE	FALSE	FALSE	FALSE	TRUE	0
p09	2015	06	17	09	18	f	18	r	77.9406229141	3	31	0.405044334009	1.2218512003	visual	right	left	tactile	NA	237.559355097	FALSE	FALSE	FALSE	FALSE	TRUE	0
p09	2015	06	17	09	18	f	18	r	77.9406229141	3	32	0.584049748024	1.04833318527	tactile	right	left	tactile	NA	223.944796249	FALSE	FALSE	FALSE	FALSE	TRUE	0
p09	2015	06	17	09	18	f	18	r	77.9406229141	3	33	0.536742571043	0.843155515551	visual	right	right	visual	NA	257.894690847	FALSE	FALSE	FALSE	FALSE	FALSE	0
p09	2015	06	17	09	18	f	18	r	77.9406229141	3	34	0.727796423947	0.636917686469	visual	left	left	visual	NA	305.610947078	FALSE	FALSE	FALSE	FALSE	TRUE	0
p09	2015	06	17	09	18	f	18	r	77.9406229141	3	35	2.73986415309	0.581641834806	visual	right	left	visual	NA	83.7551758159	FALSE	FALSE	FALSE	FALSE	TRUE	0
p09	2015	06	17	09	18	f	18	r	77.9406229141	3	36	0.85794946691	1.46859169791	visual	right	right	visual	NA	335.568010574	FALSE	FALSE	FALSE	FALSE	TRUE	0
p09	2015	06	17	09	18	f	18	r	77.9406229141	3	37	0.626954491949	1.15767896432	tactile	left	catch	tactile	NA	NA	FALSE	FALSE	FALSE	FALSE	TRUE	0
p09	2015	06	17	09	18	f	18	r	77.9406229141	3	38	0.706404293887	1.12915280751	visual	left	left	visual	NA	317.684422247	FALSE	FALSE	FALSE	FALSE	TRUE	0
p09	2015	06	17	09	18	f	18	r	77.9406229141	3	39	1.0322894589	1.26769424154	tactile	right	left	tactile	NA	230.254946044	FALSE	FALSE	FALSE	FALSE	FALSE	0
p09	2015	06	17	09	18	f	18	r	77.9406229141	3	40	5.25008933106	1.16583379849	visual	left	right	visual	NA	290.97094317	FALSE	FALSE	FALSE	FALSE	FALSE	0
p09	2015	06	17	09	18	f	18	r	5.05419876613	3	41	11.1425522109	0.820617448031	visual	left	right	visual	NA	271.696474636	FALSE	FALSE	FALSE	FALSE	TRUE	0
p09	2015	06	17	09	18	f	18	r	5.05419876613	3	42	0.773669314105	0.880875001548	visual	left	right	tactile	NA	253.260693047	FALSE	FALSE	FALSE	FALSE	TRUE	0
p09	2015	06	17	09	18	f	18	r	5.05419876613	3	43	0.728468207875	0.712013523884	visual	right	right	tactile	NA	236.265697982	FALSE	FALSE	FALSE	FALSE	TRUE	0
p09	2015	06	17	09	18	f	18	r	5.05419876613	3	44	0.478069155943	0.941713824855	visual	left	catch	tactile	NA	224.128326634	FALSE	FALSE	FALSE	FALSE	TRUE	0
p09	2015	06	17	09	18	f	18	r	5.05419876613	3	45	0.555619193008	1.01591939392	tactile	left	right	visual	NA	285.97475565	FALSE	FALSE	FALSE	FALSE	TRUE	0
p09	2015	06	17	09	18	f	18	r	5.05419876613	3	46	0.56637869589	0.586132112874	tactile	left	left	visual	NA	302.282632794	FALSE	FALSE	FALSE	FALSE	TRUE	0
p09	2015	06	17	09	18	f	18	r	5.05419876613	3	47	1.69390409393	0.737558095541	visual	right	right	visual	NA	396.551779937	FALSE	FALSE	FALSE	FALSE	TRUE	0
p09	2015	06	17	09	18	f	18	r	5.05419876613	3	48	1.01062437985	0.709103916157	tactile	left	right	visual	NA	281.704489607	FALSE	FALSE	FALSE	FALSE	TRUE	0
p09	2015	06	17	09	18	f	18	r	5.05419876613	3	49	0.981800607871	0.99000330016	visual	right	left	visual	NA	262.33171043	FALSE	FALSE	FALSE	FALSE	TRUE	0
p09	2015	06	17	09	18	f	18	r	5.05419876613	3	50	1.37950783991	0.633795742122	visual	left	left	tactile	NA	215.095639229	FALSE	FALSE	FALSE	FALSE	TRUE	0
p09	2015	06	17	09	18	f	18	r	5.05419876613	3	51	1.05921066506	1.13713836717	visual	right	left	tactile	NA	184.378673322	FALSE	FALSE	FALSE	FALSE	TRUE	0
p09	2015	06	17	09	18	f	18	r	5.05419876613	3	52	0.736349439016	0.796614835515	tactile	right	right	visual	NA	124.346839031	FALSE	FALSE	FALSE	FALSE	TRUE	0
p09	2015	06	17	09	18	f	18	r	5.05419876613	3	53	0.852816012921	1.21637888545	visual	left	right	visual	NA	264.532926027	FALSE	FALSE	FALSE	FALSE	TRUE	0
p09	2015	06	17	09	18	f	18	r	5.05419876613	3	54	0.644341489999	1.07391588387	tactile	left	catch	visual	NA	NA	FALSE	FALSE	FALSE	FALSE	TRUE	0
p09	2015	06	17	09	18	f	18	r	5.05419876613	3	55	0.528363202	1.14536334977	tactile	right	left	visual	NA	268.35237979	FALSE	FALSE	FALSE	FALSE	TRUE	0
p09	2015	06	17	09	18	f	18	r	5.05419876613	3	56	0.636586118955	1.08268235271	tactile	left	left	visual	NA	281.062841881	FALSE	FALSE	FALSE	FALSE	TRUE	0
p09	2015	06	17	09	18	f	18	r	5.05419876613	3	57	0.623648102861	1.21292214396	tactile	right	right	visual	NA	246.011980576	FALSE	FALSE	FALSE	FALSE	FALSE	0
p09	2015	06	17	09	18	f	18	r	5.05419876613	3	58	0.618898471817	1.02981291342	tactile	left	left	visual	NA	287.866438041	FALSE	FALSE	FALSE	FALSE	FALSE	0
p09	2015	06	17	09	18	f	18	r	5.05419876613	3	59	0.484104674077	1.23756671353	tactile	left	left	visual	NA	287.098354194	FALSE	FALSE	FALSE	FALSE	TRUE	0
p09	2015	06	17	09	18	f	18	r	5.05419876613	3	60	0.464747168822	1.18004543292	tactile	left	right	tactile	NA	140.336928656	FALSE	FALSE	FALSE	FALSE	TRUE	0
p09	2015	06	17	09	18	f	18	r	5.05419876613	3	61	0.701502528973	0.608422625274	tactile	right	left	tactile	NA	206.120048417	FALSE	FALSE	FALSE	FALSE	FALSE	0
p09	2015	06	17	09	18	f	18	r	5.05419876613	3	62	0.610600640066	1.38510671322	visual	right	right	tactile	NA	238.874730188	FALSE	FALSE	FALSE	FALSE	TRUE	0
p09	2015	06	17	09	18	f	18	r	5.05419876613	3	63	0.443991224049	0.87272938976	visual	right	left	tactile	NA	205.088546965	FALSE	FALSE	FALSE	FALSE	TRUE	0
p09	2015	06	17	09	18	f	18	r	5.05419876613	3	64	0.404872250976	0.842559523971	visual	right	right	visual	NA	271.213603672	FALSE	FALSE	FALSE	FALSE	TRUE	0
p09	2015	06	17	09	18	f	18	r	5.05419876613	3	65	0.404253313085	0.793403373549	tactile	right	left	visual	NA	292.53544705	FALSE	FALSE	FALSE	FALSE	TRUE	0
p09	2015	06	17	09	18	f	18	r	5.05419876613	3	66	0.405913865892	0.741275500935	tactile	left	right	visual	NA	230.830029584	FALSE	FALSE	FALSE	FALSE	TRUE	0
p09	2015	06	17	09	18	f	18	r	5.05419876613	3	67	0.450408101082	1.44796109121	tactile	right	left	tactile	NA	234.918004135	FALSE	FALSE	FALSE	FALSE	TRUE	0
p09	2015	06	17	09	18	f	18	r	5.05419876613	3	68	0.526588662993	0.858852191284	visual	left	right	visual	NA	272.122274153	FALSE	FALSE	FALSE	FALSE	TRUE	0
p09	2015	06	17	09	18	f	18	r	5.05419876613	3	69	0.507854461903	0.790967555895	visual	left	left	visual	NA	316.847161623	FALSE	FALSE	FALSE	FALSE	TRUE	0
p09	2015	06	17	09	18	f	18	r	5.05419876613	3	70	4.75173555687	1.28207725753	tactile	left	left	visual	NA	261.932403082	FALSE	FALSE	FALSE	FALSE	TRUE	0
p09	2015	06	17	09	18	f	18	r	5.05419876613	3	71	12.6221833951	0.900734288618	visual	right	right	visual	NA	327.789501986	FALSE	FALSE	FALSE	FALSE	TRUE	0
p09	2015	06	17	09	18	f	18	r	5.05419876613	3	72	0.936468848959	0.970938549107	tactile	left	right	tactile	NA	250.590075273	FALSE	FALSE	FALSE	FALSE	TRUE	0
p09	2015	06	17	09	18	f	18	r	5.05419876613	3	73	83.928555493	1.43324142158	tactile	left	left	visual	NA	398.302973015	FALSE	FALSE	FALSE	FALSE	TRUE	0
p09	2015	06	17	09	18	f	18	r	5.05419876613	3	74	0.780303596053	0.611918298968	tactile	right	left	tactile	NA	236.512356671	FALSE	FALSE	FALSE	FALSE	FALSE	0
p09	2015	06	17	09	18	f	18	r	5.05419876613	3	75	0.689950752072	0.915035989481	tactile	right	right	visual	NA	309.741199249	FALSE	FALSE	FALSE	FALSE	TRUE	0
p09	2015	06	17	09	18	f	18	r	5.05419876613	3	76	0.531663867878	0.735966555866	tactile	left	left	tactile	NA	232.901260955	FALSE	FALSE	FALSE	FALSE	TRUE	0
p09	2015	06	17	09	18	f	18	r	5.05419876613	3	77	0.539287732914	0.526930585635	visual	right	catch	tactile	NA	177.501081722	FALSE	FALSE	FALSE	FALSE	FALSE	0
p09	2015	06	17	09	18	f	18	r	5.05419876613	3	78	0.633268218022	0.691464621586	visual	right	left	tactile	NA	221.640271833	FALSE	FALSE	FALSE	FALSE	FALSE	0
p09	2015	06	17	09	18	f	18	r	5.05419876613	3	79	0.441288331989	1.41851344212	tactile	left	left	visual	NA	331.183275441	FALSE	FALSE	FALSE	FALSE	FALSE	0
p09	2015	06	17	09	18	f	18	r	5.05419876613	3	80	0.43939069286	1.02451357484	tactile	right	left	tactile	NA	222.579710884	FALSE	FALSE	FALSE	FALSE	FALSE	0
p09	2015	06	17	09	18	f	18	r	5.41440542392	3	81	3.06844677101	1.16940086721	tactile	left	left	tactile	NA	203.700845363	FALSE	FALSE	FALSE	FALSE	TRUE	0
p09	2015	06	17	09	18	f	18	r	5.41440542392	3	82	0.472537860973	0.652773464645	tactile	right	right	tactile	NA	284.173959168	FALSE	FALSE	FALSE	FALSE	FALSE	0
p09	2015	06	17	09	18	f	18	r	5.41440542392	3	83	0.424903133186	0.727440993898	visual	right	left	visual	NA	270.776600577	FALSE	FALSE	FALSE	FALSE	FALSE	0
p09	2015	06	17	09	18	f	18	r	5.41440542392	3	84	0.455383788096	1.39679715384	visual	left	left	visual	NA	222.510989523	FALSE	FALSE	FALSE	FALSE	FALSE	0
p09	2015	06	17	09	18	f	18	r	5.41440542392	3	85	0.450556525961	1.06950920953	visual	left	right	visual	NA	258.735890035	FALSE	FALSE	FALSE	FALSE	FALSE	0
p09	2015	06	17	09	18	f	18	r	5.41440542392	3	86	0.409972129157	0.765830672826	visual	left	right	tactile	NA	233.857622836	FALSE	FALSE	FALSE	FALSE	TRUE	0
p09	2015	06	17	09	18	f	18	r	5.41440542392	3	87	0.399727941025	1.06042905099	tactile	right	right	visual	NA	15.9085264895	FALSE	FALSE	FALSE	FALSE	FALSE	0
p09	2015	06	17	09	18	f	18	r	5.41440542392	3	88	2.55366473296	0.88052018999	visual	right	left	visual	NA	219.582311809	FALSE	FALSE	FALSE	FALSE	FALSE	0
p09	2015	06	17	09	18	f	18	r	5.41440542392	3	89	0.472487760009	0.873729439626	visual	right	left	visual	NA	272.382562049	FALSE	FALSE	FALSE	FALSE	FALSE	0
p09	2015	06	17	09	18	f	18	r	5.41440542392	3	90	0.399285275023	1.49247026059	tactile	left	left	tactile	NA	259.879967198	FALSE	FALSE	FALSE	FALSE	TRUE	0
p09	2015	06	17	09	18	f	18	r	5.41440542392	3	91	0.399254399119	1.39123488187	visual	left	right	tactile	NA	220.334373647	FALSE	FALSE	FALSE	FALSE	TRUE	0
p09	2015	06	17	09	18	f	18	r	5.41440542392	3	92	0.409047905123	0.599078270901	tactile	right	catch	tactile	NA	348.745518597	FALSE	FALSE	FALSE	FALSE	TRUE	0
p09	2015	06	17	09	18	f	18	r	5.41440542392	3	93	2.27583618788	0.714025940585	tactile	right	right	tactile	NA	225.765148178	FALSE	FALSE	FALSE	FALSE	FALSE	0
p09	2015	06	17	09	18	f	18	r	5.41440542392	3	94	0.670263632899	0.995682593543	visual	right	left	tactile	NA	242.544595152	FALSE	FALSE	FALSE	FALSE	TRUE	0
p09	2015	06	17	09	18	f	18	r	5.41440542392	3	95	0.971796718892	0.871739637396	visual	right	right	visual	NA	377.572638215	FALSE	FALSE	FALSE	FALSE	TRUE	0
p09	2015	06	17	09	18	f	18	r	5.41440542392	3	96	0.547069316031	1.38797840534	visual	left	left	tactile	NA	217.119411333	FALSE	FALSE	FALSE	FALSE	TRUE	0
p09	2015	06	17	09	18	f	18	r	5.41440542392	3	97	1.103582524	1.04105539848	visual	left	right	visual	NA	253.540968988	FALSE	FALSE	FALSE	FALSE	TRUE	0
p09	2015	06	17	09	18	f	18	r	5.41440542392	3	98	0.432947855908	0.987275835828	visual	left	left	tactile	NA	194.471171824	FALSE	FALSE	FALSE	FALSE	TRUE	0
p09	2015	06	17	09	18	f	18	r	5.41440542392	3	99	0.439526036847	1.17377949465	tactile	right	left	visual	NA	267.018881859	FALSE	FALSE	FALSE	FALSE	TRUE	0
p09	2015	06	17	09	18	f	18	r	5.41440542392	3	100	0.411383932922	1.14209745155	tactile	right	left	tactile	NA	88.8238660991	FALSE	FALSE	FALSE	FALSE	FALSE	0
p09	2015	06	17	09	18	f	18	r	5.41440542392	3	101	0.472966240952	0.724017251773	visual	right	left	tactile	NA	247.064616764	FALSE	FALSE	FALSE	FALSE	FALSE	0
p09	2015	06	17	09	18	f	18	r	5.41440542392	3	102	0.40158378589	1.27534545569	visual	left	left	tactile	NA	190.486178966	FALSE	FALSE	FALSE	FALSE	TRUE	0
p09	2015	06	17	09	18	f	18	r	5.41440542392	3	103	0.569505228894	0.818074418987	tactile	right	left	visual	NA	397.547881585	FALSE	FALSE	FALSE	FALSE	TRUE	0
p09	2015	06	17	09	18	f	18	r	5.41440542392	3	104	0.506339140935	1.23111510334	visual	left	left	tactile	NA	214.545850409	FALSE	FALSE	FALSE	FALSE	TRUE	0
p09	2015	06	17	09	18	f	18	r	5.41440542392	3	105	0.749916573986	1.10246581482	visual	left	catch	tactile	NA	154.949708609	FALSE	FALSE	FALSE	FALSE	TRUE	0
p09	2015	06	17	09	18	f	18	r	5.41440542392	3	106	1.2650540031	1.48919842485	tactile	right	right	tactile	NA	292.684876826	FALSE	FALSE	FALSE	FALSE	TRUE	0
p09	2015	06	17	09	18	f	18	r	5.41440542392	3	107	0.465089754201	1.0133425332	visual	right	left	visual	NA	243.227219442	FALSE	FALSE	FALSE	FALSE	TRUE	0
p09	2015	06	17	09	18	f	18	r	5.41440542392	3	108	3.80102188303	0.843397187902	visual	right	right	tactile	NA	213.909034617	FALSE	FALSE	FALSE	FALSE	FALSE	0
p09	2015	06	17	09	18	f	18	r	5.41440542392	3	109	0.705776626011	1.12453600129	tactile	left	right	tactile	NA	198.430276243	FALSE	FALSE	FALSE	FALSE	TRUE	0
p09	2015	06	17	09	18	f	18	r	5.41440542392	3	110	0.707617539214	1.2330977407	visual	left	left	tactile	NA	229.451959953	FALSE	FALSE	FALSE	FALSE	TRUE	0
p09	2015	06	17	09	18	f	18	r	5.41440542392	3	111	0.666799616069	1.00626467457	tactile	right	right	tactile	NA	246.086136205	FALSE	FALSE	FALSE	FALSE	TRUE	0
p09	2015	06	17	09	18	f	18	r	5.41440542392	3	112	0.46966447006	1.05337211598	tactile	right	left	tactile	NA	190.473758383	FALSE	FALSE	FALSE	FALSE	TRUE	0
p09	2015	06	17	09	18	f	18	r	5.41440542392	3	113	1.35740650608	1.16165431485	visual	right	right	tactile	NA	198.715195525	FALSE	FALSE	FALSE	FALSE	FALSE	0
p09	2015	06	17	09	18	f	18	r	5.41440542392	3	114	1.03483895189	0.53412086947	visual	right	left	visual	NA	298.783897189	FALSE	FALSE	FALSE	FALSE	FALSE	0
p09	2015	06	17	09	18	f	18	r	5.41440542392	3	115	12.650084943	0.961987693862	tactile	left	right	visual	NA	257.446848787	FALSE	FALSE	FALSE	FALSE	FALSE	0
p09	2015	06	17	09	18	f	18	r	5.41440542392	3	116	8.35836015013	0.863893575266	visual	left	left	tactile	NA	228.459633188	FALSE	FALSE	FALSE	FALSE	TRUE	0
p09	2015	06	17	09	18	f	18	r	5.41440542392	3	117	3.03459001984	0.957339334718	tactile	left	right	visual	NA	266.980285989	FALSE	FALSE	FALSE	FALSE	FALSE	0
p09	2015	06	17	09	18	f	18	r	5.41440542392	3	118	0.828385347966	0.900320502997	tactile	left	catch	tactile	NA	NA	FALSE	FALSE	FALSE	FALSE	TRUE	0
p09	2015	06	17	09	18	f	18	r	5.41440542392	3	119	2.24851139891	1.3991090665	visual	left	right	tactile	NA	199.364554137	FALSE	FALSE	FALSE	FALSE	TRUE	0
p09	2015	06	17	09	18	f	18	r	5.41440542392	3	120	0.608526201919	1.36170284609	tactile	left	left	tactile	NA	196.318589617	FALSE	FALSE	FALSE	FALSE	TRUE	0
p09	2015	06	17	09	18	f	18	r	9.99888128694	3	121	1.59423190309	0.581327872112	visual	left	left	visual	NA	314.855562523	FALSE	FALSE	FALSE	FALSE	TRUE	0
p09	2015	06	17	09	18	f	18	r	9.99888128694	3	122	0.550490686903	0.650871737436	tactile	left	right	visual	NA	277.442993363	FALSE	FALSE	FALSE	FALSE	FALSE	0
p09	2015	06	17	09	18	f	18	r	9.99888128694	3	123	0.525892625097	1.47652875049	tactile	left	right	visual	voice	NA	TRUE	FALSE	FALSE	FALSE	TRUE	0
p09	2015	06	17	09	18	f	18	r	9.99888128694	3	124	0.743541263044	0.72129059511	visual	left	right	tactile	NA	320.355791366	FALSE	FALSE	FALSE	FALSE	TRUE	0
p09	2015	06	17	09	18	f	18	r	9.99888128694	3	125	0.505833867937	0.916557162839	visual	right	left	tactile	NA	262.797381729	FALSE	FALSE	FALSE	FALSE	TRUE	0
p09	2015	06	17	09	18	f	18	r	9.99888128694	3	126	1.4683257679	0.510422623791	visual	right	right	tactile	NA	293.916474795	FALSE	FALSE	FALSE	FALSE	TRUE	0
p09	2015	06	17	09	18	f	18	r	9.99888128694	3	127	4.48595797783	0.655343036261	tactile	left	left	tactile	NA	327.095136512	FALSE	FALSE	FALSE	FALSE	FALSE	0
p09	2015	06	17	09	18	f	18	r	9.99888128694	3	128	3.77265617484	0.706969722573	visual	left	right	visual	NA	284.074851079	FALSE	FALSE	FALSE	FALSE	FALSE	0
p09	2015	06	17	09	18	f	18	r	9.99888128694	3	129	0.9518109411	1.1799418767	tactile	left	left	tactile	NA	222.446122905	FALSE	FALSE	FALSE	FALSE	TRUE	0
p09	2015	06	17	09	18	f	18	r	9.99888128694	3	130	1.62722601811	1.2361882965	tactile	right	right	visual	NA	169.828030979	FALSE	FALSE	FALSE	FALSE	TRUE	0
p09	2015	06	17	09	18	f	18	r	9.99888128694	3	131	2.67622612696	1.00200855854	tactile	right	right	visual	NA	244.378839154	FALSE	FALSE	FALSE	FALSE	TRUE	0
p09	2015	06	17	09	18	f	18	r	9.99888128694	3	132	0.628511206945	0.660350258559	visual	left	left	visual	NA	233.462487115	FALSE	FALSE	FALSE	FALSE	FALSE	0
p09	2015	06	17	09	18	f	18	r	9.99888128694	3	133	0.563282027841	0.640041522761	tactile	right	left	tactile	NA	333.338778	FALSE	FALSE	FALSE	FALSE	TRUE	0
p09	2015	06	17	09	18	f	18	r	9.99888128694	3	134	0.548929496901	0.691119648033	visual	left	right	visual	NA	265.982490499	FALSE	FALSE	FALSE	FALSE	FALSE	0
p09	2015	06	17	09	18	f	18	r	9.99888128694	3	135	1.23708615312	1.45583698623	visual	right	right	visual	NA	156.597181223	FALSE	FALSE	FALSE	FALSE	TRUE	0
p09	2015	06	17	09	18	f	18	r	9.99888128694	3	136	2.258639551	1.38818108377	tactile	left	left	visual	NA	205.720723839	FALSE	FALSE	FALSE	FALSE	FALSE	0
p09	2015	06	17	09	18	f	18	r	9.99888128694	3	137	0.551281095948	1.20403888278	visual	right	catch	visual	NA	263.751148712	FALSE	FALSE	FALSE	FALSE	FALSE	0
p09	2015	06	17	09	18	f	18	r	9.99888128694	3	138	0.562325876905	0.944999572698	tactile	left	left	tactile	NA	257.85192498	FALSE	FALSE	FALSE	FALSE	TRUE	0
p09	2015	06	17	09	18	f	18	r	9.99888128694	3	139	0.532608853886	1.0496755669	visual	left	catch	visual	NA	333.227874711	FALSE	FALSE	FALSE	FALSE	FALSE	0
p09	2015	06	17	09	18	f	18	r	9.99888128694	3	140	0.782931657042	1.4039492178	tactile	right	right	visual	NA	289.408190874	FALSE	FALSE	FALSE	FALSE	TRUE	0
p09	2015	06	17	09	18	f	18	r	9.99888128694	3	141	0.845665766858	0.94781197546	visual	left	right	tactile	NA	280.595124234	FALSE	FALSE	FALSE	FALSE	TRUE	0
p09	2015	06	17	09	18	f	18	r	9.99888128694	3	142	0.868885762058	1.40559009496	tactile	left	right	visual	NA	318.692481611	FALSE	FALSE	FALSE	FALSE	TRUE	0
p09	2015	06	17	09	18	f	18	r	9.99888128694	3	143	0.702578663127	1.07345910617	tactile	right	left	visual	NA	184.630286414	FALSE	FALSE	FALSE	FALSE	TRUE	0
p09	2015	06	17	09	18	f	18	r	9.99888128694	3	144	1.7096905869	1.2116752526	tactile	right	right	tactile	NA	197.552446043	FALSE	FALSE	FALSE	FALSE	TRUE	0
p09	2015	06	17	09	18	f	18	r	9.99888128694	3	145	0.854010483017	0.702480934929	tactile	left	left	tactile	NA	234.984352486	FALSE	FALSE	FALSE	FALSE	TRUE	0
p09	2015	06	17	09	18	f	18	r	9.99888128694	3	146	0.494841430103	1.1697138531	tactile	left	left	tactile	NA	5.33245247789	FALSE	FALSE	FALSE	FALSE	TRUE	0
p09	2015	06	17	09	18	f	18	r	9.99888128694	3	147	1.16775365919	0.628786559782	visual	right	left	visual	NA	57.207607897	FALSE	FALSE	FALSE	FALSE	TRUE	0
p09	2015	06	17	09	18	f	18	r	9.99888128694	3	148	0.771872353973	0.988425225401	tactile	right	catch	visual	NA	88.0384091288	FALSE	FALSE	FALSE	FALSE	TRUE	0
p09	2015	06	17	09	18	f	18	r	9.99888128694	3	149	20.956451264	0.725706521325	tactile	right	left	visual	NA	351.447622059	FALSE	FALSE	FALSE	FALSE	FALSE	0
p09	2015	06	17	09	18	f	18	r	9.99888128694	3	150	1.34488256695	0.96882735259	visual	left	catch	visual	NA	NA	FALSE	FALSE	FALSE	FALSE	TRUE	0
p09	2015	06	17	09	18	f	18	r	9.99888128694	3	151	0.676663074177	1.04273214214	tactile	right	left	visual	NA	295.818214538	FALSE	FALSE	FALSE	FALSE	TRUE	0
p09	2015	06	17	09	18	f	18	r	9.99888128694	3	152	0.429589062929	0.608664708091	tactile	right	right	tactile	NA	269.073024625	FALSE	FALSE	FALSE	FALSE	TRUE	0
p09	2015	06	17	09	18	f	18	r	9.99888128694	3	153	0.467063643038	1.14049999558	tactile	right	right	tactile	NA	397.742260015	FALSE	FALSE	FALSE	FALSE	TRUE	0
p09	2015	06	17	09	18	f	18	r	9.99888128694	3	154	1.656167245	1.0377142358	visual	right	left	visual	NA	253.544916864	FALSE	FALSE	FALSE	FALSE	TRUE	0
p09	2015	06	17	09	18	f	18	r	9.99888128694	3	155	1.44158592005	1.16034920718	visual	right	right	tactile	NA	238.050281303	FALSE	FALSE	FALSE	FALSE	TRUE	0
p09	2015	06	17	09	18	f	18	r	9.99888128694	3	156	2.21677071904	0.933239699379	tactile	left	catch	visual	NA	NA	FALSE	FALSE	FALSE	FALSE	TRUE	0
p09	2015	06	17	09	18	f	18	r	9.99888128694	3	157	2.32076332509	0.520573073392	visual	left	right	visual	NA	279.612875311	FALSE	FALSE	FALSE	FALSE	TRUE	0
p09	2015	06	17	09	18	f	18	r	9.99888128694	3	158	0.725456072018	0.745111337243	visual	right	left	tactile	NA	252.592373407	FALSE	FALSE	FALSE	FALSE	TRUE	0
p09	2015	06	17	09	18	f	18	r	9.99888128694	3	159	1.42941252189	0.669069378783	tactile	right	right	tactile	NA	236.414796673	FALSE	FALSE	FALSE	FALSE	FALSE	0
p09	2015	06	17	09	18	f	18	r	9.99888128694	3	160	0.871757975081	1.10011916093	tactile	right	right	visual	NA	528.272886528	FALSE	FALSE	FALSE	FALSE	FALSE	0
p09	2015	06	17	09	18	f	18	r	38.8158986291	4	1	2.64329802711	1.17949949082	tactile	right	left	visual	NA	292.39051789	FALSE	FALSE	FALSE	FALSE	FALSE	0
p09	2015	06	17	09	18	f	18	r	38.8158986291	4	2	0.591178384842	1.2913001975	tactile	left	left	visual	NA	241.472613998	FALSE	FALSE	FALSE	FALSE	TRUE	0
p09	2015	06	17	09	18	f	18	r	38.8158986291	4	3	0.451954507967	1.49449179137	tactile	right	right	visual	NA	261.019432219	FALSE	FALSE	FALSE	FALSE	TRUE	0
p09	2015	06	17	09	18	f	18	r	38.8158986291	4	4	0.392773657106	0.665943266265	visual	left	right	visual	NA	287.505563349	FALSE	FALSE	FALSE	FALSE	TRUE	0
p09	2015	06	17	09	18	f	18	r	38.8158986291	4	5	0.40237300517	0.880045626942	tactile	right	right	tactile	NA	213.680673623	FALSE	FALSE	FALSE	FALSE	TRUE	0
p09	2015	06	17	09	18	f	18	r	38.8158986291	4	6	1.24469442503	1.37770489802	tactile	left	left	tactile	NA	193.107401254	FALSE	FALSE	FALSE	FALSE	TRUE	0
p09	2015	06	17	09	18	f	18	r	38.8158986291	4	7	0.401164665818	1.20345596001	tactile	right	right	visual	NA	338.682009606	FALSE	FALSE	FALSE	FALSE	TRUE	0
p09	2015	06	17	09	18	f	18	r	38.8158986291	4	8	3.81654653698	1.15433259074	visual	left	left	tactile	NA	206.05577575	FALSE	FALSE	FALSE	FALSE	FALSE	0
p09	2015	06	17	09	18	f	18	r	38.8158986291	4	9	0.896331619937	1.46909607716	visual	right	right	tactile	NA	221.50845034	FALSE	FALSE	FALSE	FALSE	FALSE	0
p09	2015	06	17	09	18	f	18	r	38.8158986291	4	10	1.70354784303	1.2770831576	visual	left	right	tactile	NA	259.715246968	FALSE	FALSE	FALSE	FALSE	TRUE	0
p09	2015	06	17	09	18	f	18	r	38.8158986291	4	11	1.26463307207	0.889432642106	visual	left	right	tactile	NA	173.595066415	FALSE	FALSE	FALSE	FALSE	FALSE	0
p09	2015	06	17	09	18	f	18	r	38.8158986291	4	12	0.945814777166	1.09761909728	tactile	right	left	visual	voice	NA	TRUE	FALSE	FALSE	FALSE	FALSE	0
p09	2015	06	17	09	18	f	18	r	38.8158986291	4	13	0.947145137936	0.629026753959	visual	left	left	tactile	NA	363.730035489	FALSE	FALSE	FALSE	FALSE	FALSE	0
p09	2015	06	17	09	18	f	18	r	38.8158986291	4	14	0.883235029876	0.738949154992	visual	right	right	visual	NA	339.65636557	FALSE	FALSE	FALSE	FALSE	TRUE	0
p09	2015	06	17	09	18	f	18	r	38.8158986291	4	15	0.82717435807	0.936173584833	tactile	left	left	tactile	NA	125.197209883	FALSE	FALSE	FALSE	FALSE	TRUE	0
p09	2015	06	17	09	18	f	18	r	38.8158986291	4	16	1.1034397129	0.535794452566	visual	left	left	tactile	NA	241.305541014	FALSE	FALSE	FALSE	FALSE	TRUE	0
p09	2015	06	17	09	18	f	18	r	38.8158986291	4	17	1.25993335503	1.07060301812	tactile	right	catch	tactile	NA	177.311430452	FALSE	FALSE	FALSE	FALSE	TRUE	0
p09	2015	06	17	09	18	f	18	r	38.8158986291	4	18	0.915063278051	1.46325949434	visual	right	right	tactile	NA	240.51328213	FALSE	FALSE	FALSE	FALSE	TRUE	0
p09	2015	06	17	09	18	f	18	r	38.8158986291	4	19	0.888062377926	1.17005882657	visual	left	left	visual	NA	243.000719231	FALSE	FALSE	FALSE	FALSE	FALSE	0
p09	2015	06	17	09	18	f	18	r	38.8158986291	4	20	0.854401943972	0.531145635677	visual	right	right	tactile	NA	268.118541921	FALSE	FALSE	FALSE	FALSE	FALSE	0
p09	2015	06	17	09	18	f	18	r	38.8158986291	4	21	0.948661265895	0.663674431904	visual	right	catch	tactile	NA	340.804929612	FALSE	FALSE	FALSE	FALSE	FALSE	0
p09	2015	06	17	09	18	f	18	r	38.8158986291	4	22	1.07074413588	0.969007336795	tactile	right	catch	visual	NA	433.46145493	FALSE	FALSE	FALSE	FALSE	TRUE	0
p09	2015	06	17	09	18	f	18	r	38.8158986291	4	23	2.65598039795	1.34365646535	tactile	left	right	tactile	NA	285.520219244	FALSE	FALSE	FALSE	FALSE	TRUE	0
p09	2015	06	17	09	18	f	18	r	38.8158986291	4	24	0.883976624813	0.729682899901	visual	left	right	visual	NA	311.581016518	FALSE	FALSE	FALSE	FALSE	TRUE	0
p09	2015	06	17	09	18	f	18	r	38.8158986291	4	25	0.971571237082	0.611200281403	tactile	left	left	visual	NA	331.698365975	FALSE	FALSE	FALSE	FALSE	TRUE	0
p09	2015	06	17	09	18	f	18	r	38.8158986291	4	26	0.93924712413	0.881690475885	tactile	right	right	visual	NA	384.006118635	FALSE	FALSE	FALSE	FALSE	FALSE	0
p09	2015	06	17	09	18	f	18	r	38.8158986291	4	27	48.138626188	1.06465924307	visual	left	left	tactile	NA	275.376151782	FALSE	FALSE	FALSE	FALSE	FALSE	0
p09	2015	06	17	09	18	f	18	r	38.8158986291	4	28	0.917949476046	0.513858402065	visual	right	left	tactile	NA	255.376402289	FALSE	FALSE	FALSE	FALSE	TRUE	0
p09	2015	06	17	09	18	f	18	r	38.8158986291	4	29	0.796743900981	1.28630490072	tactile	right	right	visual	NA	386.502755107	FALSE	FALSE	FALSE	FALSE	FALSE	0
p09	2015	06	17	09	18	f	18	r	38.8158986291	4	30	0.604209473822	0.785424406015	visual	right	left	tactile	NA	204.552502837	FALSE	FALSE	FALSE	FALSE	FALSE	0
p09	2015	06	17	09	18	f	18	r	38.8158986291	4	31	0.450970613863	1.25136981334	tactile	left	left	tactile	NA	244.290844304	FALSE	FALSE	FALSE	FALSE	TRUE	0
p09	2015	06	17	09	18	f	18	r	38.8158986291	4	32	0.700811499031	1.27909829104	tactile	right	left	tactile	NA	242.542396765	FALSE	FALSE	FALSE	FALSE	FALSE	0
p09	2015	06	17	09	18	f	18	r	38.8158986291	4	33	0.492259769002	0.689288465423	tactile	left	catch	visual	NA	NA	FALSE	FALSE	FALSE	FALSE	TRUE	0
p09	2015	06	17	09	18	f	18	r	38.8158986291	4	34	0.614336120896	0.800287356911	tactile	left	left	visual	NA	245.137763675	FALSE	FALSE	FALSE	FALSE	FALSE	0
p09	2015	06	17	09	18	f	18	r	38.8158986291	4	35	0.664763343986	1.34412640739	tactile	left	catch	tactile	NA	NA	FALSE	FALSE	FALSE	FALSE	TRUE	0
p09	2015	06	17	09	18	f	18	r	38.8158986291	4	36	0.871489993064	0.913269711484	visual	right	left	tactile	NA	255.736166146	FALSE	FALSE	FALSE	FALSE	FALSE	0
p09	2015	06	17	09	18	f	18	r	38.8158986291	4	37	0.653407325037	0.970916183854	visual	left	left	tactile	NA	247.186798602	FALSE	FALSE	FALSE	FALSE	FALSE	0
p09	2015	06	17	09	18	f	18	r	38.8158986291	4	38	0.584334672894	0.955687076369	visual	right	left	visual	NA	275.538117392	FALSE	FALSE	FALSE	FALSE	FALSE	0
p09	2015	06	17	09	18	f	18	r	38.8158986291	4	39	0.580975065008	1.28451589141	tactile	left	left	tactile	NA	244.083452271	FALSE	FALSE	FALSE	FALSE	FALSE	0
p09	2015	06	17	09	18	f	18	r	38.8158986291	4	40	0.482808243018	1.25721350899	visual	right	catch	tactile	NA	338.574520545	FALSE	FALSE	FALSE	FALSE	FALSE	0
p09	2015	06	17	09	18	f	18	r	3.54225998302	4	41	5.82068285788	0.558369143241	visual	left	right	tactile	NA	249.587567523	FALSE	FALSE	FALSE	FALSE	TRUE	0
p09	2015	06	17	09	18	f	18	r	3.54225998302	4	42	0.496851429809	1.47762082147	tactile	right	left	tactile	NA	259.883163264	FALSE	FALSE	FALSE	FALSE	TRUE	0
p09	2015	06	17	09	18	f	18	r	3.54225998302	4	43	0.469821589068	0.560943119381	tactile	left	right	visual	NA	353.310125181	FALSE	FALSE	FALSE	FALSE	FALSE	0
p09	2015	06	17	09	18	f	18	r	3.54225998302	4	44	0.43962228694	1.18964764965	visual	left	right	visual	NA	319.359218935	FALSE	FALSE	FALSE	FALSE	TRUE	0
p09	2015	06	17	09	18	f	18	r	3.54225998302	4	45	0.526451441925	0.966070570969	tactile	left	right	visual	NA	293.238692684	FALSE	FALSE	FALSE	FALSE	FALSE	0
p09	2015	06	17	09	18	f	18	r	3.54225998302	4	46	0.484072719002	0.571485647899	visual	left	right	visual	NA	481.513373787	FALSE	FALSE	FALSE	FALSE	FALSE	0
p09	2015	06	17	09	18	f	18	r	3.54225998302	4	47	0.445247528842	1.08325486299	visual	right	left	visual	NA	70.7334806211	FALSE	FALSE	FALSE	FALSE	FALSE	0
p09	2015	06	17	09	18	f	18	r	3.54225998302	4	48	0.597075612051	1.11219763102	visual	left	right	visual	NA	172.94528964	FALSE	FALSE	FALSE	TRUE	TRUE	0
p09	2015	06	17	09	18	f	18	r	3.54225998302	4	49	0.546236675931	1.11521105093	visual	right	right	visual	NA	286.931860726	FALSE	FALSE	FALSE	FALSE	FALSE	0
p09	2015	06	17	09	18	f	18	r	3.54225998302	4	50	0.558193532983	1.40373980384	tactile	left	left	visual	NA	260.312992614	FALSE	FALSE	FALSE	FALSE	FALSE	0
p09	2015	06	17	09	18	f	18	r	3.54225998302	4	51	0.542046600021	0.662962205975	tactile	right	right	visual	NA	355.172624812	FALSE	FALSE	FALSE	FALSE	TRUE	0
p09	2015	06	17	09	18	f	18	r	3.54225998302	4	52	0.41138264304	0.590393244394	visual	right	right	visual	NA	454.346466344	FALSE	FALSE	FALSE	FALSE	FALSE	0
p09	2015	06	17	09	18	f	18	r	3.54225998302	4	53	0.402784767095	1.31007624114	visual	right	right	visual	NA	325.042484328	FALSE	FALSE	FALSE	FALSE	TRUE	0
p09	2015	06	17	09	18	f	18	r	3.54225998302	4	54	0.409783226904	0.965543312371	tactile	left	right	tactile	NA	376.033193199	FALSE	FALSE	FALSE	FALSE	TRUE	0
p09	2015	06	17	09	18	f	18	r	3.54225998302	4	55	0.396143662045	0.828707082575	tactile	right	right	tactile	NA	384.095923975	FALSE	FALSE	FALSE	FALSE	TRUE	0
p09	2015	06	17	09	18	f	18	r	3.54225998302	4	56	0.401976034045	1.20100930762	visual	left	left	tactile	NA	292.375774123	FALSE	FALSE	FALSE	FALSE	FALSE	0
p09	2015	06	17	09	18	f	18	r	3.54225998302	4	57	0.401744919131	0.7856575875	tactile	right	left	tactile	NA	338.959528133	FALSE	FALSE	FALSE	FALSE	FALSE	0
p09	2015	06	17	09	18	f	18	r	3.54225998302	4	58	0.395860024029	0.739651694024	visual	right	left	visual	NA	367.27348878	FALSE	FALSE	FALSE	FALSE	FALSE	0
p09	2015	06	17	09	18	f	18	r	3.54225998302	4	59	3.65594971506	1.03184676906	tactile	right	left	visual	NA	461.694417521	FALSE	FALSE	FALSE	FALSE	TRUE	0
p09	2015	06	17	09	18	f	18	r	3.54225998302	4	60	0.757489823969	0.97529783551	tactile	right	left	visual	NA	184.246170335	FALSE	FALSE	FALSE	FALSE	FALSE	0
p09	2015	06	17	09	18	f	18	r	3.54225998302	4	61	0.630673212931	0.653333375034	tactile	left	left	tactile	NA	294.29620062	FALSE	FALSE	FALSE	FALSE	FALSE	0
p09	2015	06	17	09	18	f	18	r	3.54225998302	4	62	5.19661120698	1.19139710793	visual	right	left	visual	NA	419.93323667	FALSE	FALSE	FALSE	FALSE	FALSE	0
p09	2015	06	17	09	18	f	18	r	3.54225998302	4	63	7.54952735198	1.0673348499	visual	right	left	tactile	NA	336.120126769	FALSE	FALSE	FALSE	FALSE	TRUE	0
p09	2015	06	17	09	18	f	18	r	3.54225998302	4	64	2.61224801186	0.835239689686	tactile	right	left	visual	NA	309.110276867	FALSE	FALSE	FALSE	FALSE	FALSE	0
p09	2015	06	17	09	18	f	18	r	3.54225998302	4	65	0.933070837986	1.03045618802	visual	right	right	tactile	NA	413.802508498	FALSE	FALSE	FALSE	FALSE	FALSE	0
p09	2015	06	17	09	18	f	18	r	3.54225998302	4	66	1.60913637606	1.19739147658	visual	right	left	tactile	NA	510.924582137	FALSE	FALSE	FALSE	FALSE	FALSE	0
p09	2015	06	17	09	18	f	18	r	3.54225998302	4	67	14.1040373312	0.943175264213	visual	left	right	visual	voice	NA	TRUE	FALSE	FALSE	TRUE	TRUE	0
p09	2015	06	17	09	18	f	18	r	3.54225998302	4	68	33.560571512	1.4728541843	tactile	right	right	visual	NA	283.224834362	FALSE	FALSE	FALSE	FALSE	TRUE	0
p09	2015	06	17	09	18	f	18	r	3.54225998302	4	69	0.816980540985	0.883889562885	tactile	left	left	tactile	NA	238.202457782	FALSE	FALSE	FALSE	FALSE	TRUE	0
p09	2015	06	17	09	18	f	18	r	3.54225998302	4	70	0.701761469012	0.578425884406	visual	left	right	tactile	NA	283.764493186	FALSE	FALSE	FALSE	FALSE	FALSE	0
p09	2015	06	17	09	18	f	18	r	3.54225998302	4	71	0.636140218936	0.777598548404	tactile	right	right	tactile	NA	189.136380097	FALSE	FALSE	FALSE	FALSE	FALSE	0
p09	2015	06	17	09	18	f	18	r	3.54225998302	4	72	0.549982645083	0.530623901849	tactile	right	left	visual	NA	258.208949585	FALSE	FALSE	FALSE	FALSE	FALSE	0
p09	2015	06	17	09	18	f	18	r	3.54225998302	4	73	0.534476120025	1.15868400154	visual	right	right	visual	NA	246.246532071	FALSE	FALSE	FALSE	FALSE	FALSE	0
p09	2015	06	17	09	18	f	18	r	3.54225998302	4	74	0.564527522074	1.47063675562	visual	left	left	tactile	NA	250.034130877	FALSE	FALSE	FALSE	TRUE	TRUE	0
p09	2015	06	17	09	18	f	18	r	3.54225998302	4	75	0.540666392073	0.693444588527	tactile	right	right	tactile	NA	338.904966135	FALSE	FALSE	FALSE	FALSE	FALSE	0
p09	2015	06	17	09	18	f	18	r	3.54225998302	4	76	0.468521546107	0.791591151071	visual	left	right	visual	NA	184.204073623	FALSE	FALSE	FALSE	FALSE	TRUE	0
p09	2015	06	17	09	18	f	18	r	3.54225998302	4	77	0.591213212116	1.15522350374	visual	left	right	tactile	NA	148.832676932	FALSE	FALSE	FALSE	FALSE	FALSE	0
p09	2015	06	17	09	18	f	18	r	3.54225998302	4	78	1.29205194814	1.06605991432	tactile	left	left	visual	NA	114.114130149	FALSE	FALSE	FALSE	FALSE	FALSE	0
p09	2015	06	17	09	18	f	18	r	3.54225998302	4	79	0.899435750907	1.41733988938	tactile	left	left	visual	NA	325.689745136	FALSE	FALSE	FALSE	FALSE	TRUE	0
p09	2015	06	17	09	18	f	18	r	3.54225998302	4	80	0.802695203107	0.917911533519	tactile	right	right	tactile	NA	181.049818173	FALSE	FALSE	FALSE	FALSE	TRUE	0
p09	2015	06	17	09	18	f	18	r	4.8165301329	4	81	2.61773986393	1.37715403025	visual	right	catch	visual	NA	NA	FALSE	FALSE	FALSE	FALSE	FALSE	0
p09	2015	06	17	09	18	f	18	r	4.8165301329	4	82	0.524858884979	0.700984161276	visual	left	right	tactile	NA	222.320552217	FALSE	FALSE	FALSE	FALSE	FALSE	0
p09	2015	06	17	09	18	f	18	r	4.8165301329	4	83	0.661325389985	0.867655278008	tactile	left	right	tactile	NA	233.411949594	FALSE	FALSE	FALSE	FALSE	FALSE	0
p09	2015	06	17	09	18	f	18	r	4.8165301329	4	84	0.510919149034	1.07288420319	visual	left	left	visual	NA	340.392973507	FALSE	FALSE	FALSE	FALSE	TRUE	0
p09	2015	06	17	09	18	f	18	r	4.8165301329	4	85	4.19119257713	1.16086218609	tactile	left	right	visual	NA	260.260656709	FALSE	FALSE	FALSE	FALSE	FALSE	0
p09	2015	06	17	09	18	f	18	r	4.8165301329	4	86	0.662124302005	0.626033797184	tactile	right	right	tactile	NA	226.782173617	FALSE	FALSE	FALSE	FALSE	FALSE	0
p09	2015	06	17	09	18	f	18	r	4.8165301329	4	87	0.820506718941	1.33604530435	tactile	right	right	visual	NA	212.605181383	FALSE	FALSE	FALSE	FALSE	FALSE	0
p09	2015	06	17	09	18	f	18	r	4.8165301329	4	88	0.978591315914	1.19034556747	visual	left	left	visual	NA	289.185800124	FALSE	FALSE	FALSE	FALSE	TRUE	0
p09	2015	06	17	09	18	f	18	r	4.8165301329	4	89	1.08321490395	1.19218910806	visual	left	right	visual	NA	268.477389356	FALSE	FALSE	FALSE	FALSE	TRUE	0
p09	2015	06	17	09	18	f	18	r	4.8165301329	4	90	0.820819485001	1.14612272336	tactile	right	catch	visual	NA	166.97119223	FALSE	FALSE	FALSE	FALSE	FALSE	0
p09	2015	06	17	09	18	f	18	r	4.8165301329	4	91	0.79942512	1.24327290529	tactile	right	left	tactile	NA	290.88070849	FALSE	FALSE	FALSE	FALSE	FALSE	0
p09	2015	06	17	09	18	f	18	r	4.8165301329	4	92	0.758857283974	1.1441147944	tactile	left	left	tactile	NA	217.543141218	FALSE	FALSE	FALSE	FALSE	FALSE	0
p09	2015	06	17	09	18	f	18	r	4.8165301329	4	93	0.890926417196	1.0486355007	visual	left	left	visual	NA	246.499357978	FALSE	FALSE	FALSE	FALSE	FALSE	0
p09	2015	06	17	09	18	f	18	r	4.8165301329	4	94	0.754559163004	1.42457268577	visual	right	left	visual	NA	130.343003897	FALSE	FALSE	FALSE	FALSE	TRUE	0
p09	2015	06	17	09	18	f	18	r	4.8165301329	4	95	7.04707446299	1.43445922623	tactile	left	right	visual	NA	85.1987833157	FALSE	FALSE	FALSE	FALSE	TRUE	0
p09	2015	06	17	09	18	f	18	r	4.8165301329	4	96	0.874371804064	1.37183138934	tactile	left	left	visual	NA	296.451811213	FALSE	FALSE	FALSE	FALSE	TRUE	0
p09	2015	06	17	09	18	f	18	r	4.8165301329	4	97	0.823118457105	0.593702623555	visual	right	right	tactile	NA	214.254111052	FALSE	FALSE	FALSE	FALSE	FALSE	0
p09	2015	06	17	09	18	f	18	r	4.8165301329	4	98	0.918062356068	0.750269678398	visual	left	right	tactile	NA	78.0628451612	FALSE	FALSE	FALSE	FALSE	FALSE	0
p09	2015	06	17	09	18	f	18	r	4.8165301329	4	99	1.08180003404	1.00944870175	visual	left	catch	tactile	NA	NA	FALSE	FALSE	FALSE	FALSE	TRUE	0
p09	2015	06	17	09	18	f	18	r	4.8165301329	4	100	0.782730618026	1.24929410442	visual	left	left	visual	NA	319.021647098	FALSE	FALSE	FALSE	FALSE	TRUE	0
p09	2015	06	17	09	18	f	18	r	4.8165301329	4	101	1.12314655515	1.30715664658	visual	right	right	tactile	NA	267.125552054	FALSE	FALSE	FALSE	FALSE	FALSE	0
p09	2015	06	17	09	18	f	18	r	4.8165301329	4	102	1.74537603301	1.46491500313	visual	right	right	tactile	NA	460.826553637	FALSE	FALSE	FALSE	FALSE	FALSE	0
p09	2015	06	17	09	18	f	18	r	4.8165301329	4	103	0.719681406161	1.11225669469	tactile	right	left	tactile	NA	228.565980215	FALSE	FALSE	FALSE	FALSE	TRUE	0
p09	2015	06	17	09	18	f	18	r	4.8165301329	4	104	0.78604527493	1.07230712674	tactile	right	right	visual	NA	275.024336763	FALSE	FALSE	FALSE	FALSE	FALSE	0
p09	2015	06	17	09	18	f	18	r	4.8165301329	4	105	0.738205217989	0.522613496331	visual	right	left	tactile	NA	216.527067358	FALSE	FALSE	FALSE	FALSE	TRUE	0
p09	2015	06	17	09	18	f	18	r	4.8165301329	4	106	0.825177576859	1.48008686257	visual	left	left	tactile	NA	271.531180013	FALSE	FALSE	FALSE	FALSE	TRUE	0
p09	2015	06	17	09	18	f	18	r	4.8165301329	4	107	4.20930961799	0.847456749557	visual	right	catch	visual	NA	NA	FALSE	FALSE	FALSE	FALSE	TRUE	0
p09	2015	06	17	09	18	f	18	r	4.8165301329	4	108	1.71264548204	1.14638913192	visual	left	left	visual	NA	373.05165967	FALSE	FALSE	FALSE	FALSE	FALSE	0
p09	2015	06	17	09	18	f	18	r	4.8165301329	4	109	6.03900544392	1.41610805968	tactile	right	left	tactile	NA	256.727122003	FALSE	FALSE	FALSE	FALSE	FALSE	0
p09	2015	06	17	09	18	f	18	r	4.8165301329	4	110	0.971282539191	1.26464315707	tactile	left	left	tactile	NA	239.483774407	FALSE	FALSE	FALSE	FALSE	TRUE	0
p09	2015	06	17	09	18	f	18	r	4.8165301329	4	111	0.870790316025	1.14994163233	visual	right	right	visual	NA	334.17609334	FALSE	FALSE	FALSE	FALSE	FALSE	0
p09	2015	06	17	09	18	f	18	r	4.8165301329	4	112	5.23002640298	0.816029914937	visual	right	right	visual	NA	354.587448528	FALSE	FALSE	FALSE	FALSE	TRUE	0
p09	2015	06	17	09	18	f	18	r	4.8165301329	4	113	4.83723260602	1.0258908139	tactile	left	right	tactile	NA	281.105957692	FALSE	FALSE	FALSE	FALSE	TRUE	0
p09	2015	06	17	09	18	f	18	r	4.8165301329	4	114	0.961594333174	1.33377236308	tactile	left	left	tactile	NA	234.440415399	FALSE	FALSE	FALSE	FALSE	TRUE	0
p09	2015	06	17	09	18	f	18	r	4.8165301329	4	115	0.850077159004	0.790607943895	tactile	left	catch	visual	NA	NA	FALSE	FALSE	FALSE	FALSE	TRUE	0
p09	2015	06	17	09	18	f	18	r	4.8165301329	4	116	0.780826814007	1.39931245067	visual	left	catch	visual	NA	NA	FALSE	FALSE	FALSE	FALSE	TRUE	0
p09	2015	06	17	09	18	f	18	r	4.8165301329	4	117	0.706989802886	0.855519860826	tactile	right	left	tactile	NA	244.003281696	FALSE	FALSE	FALSE	FALSE	FALSE	0
p09	2015	06	17	09	18	f	18	r	4.8165301329	4	118	1.33047835086	1.35379999415	tactile	right	left	visual	NA	320.132690482	FALSE	FALSE	FALSE	FALSE	TRUE	0
p09	2015	06	17	09	18	f	18	r	4.8165301329	4	119	0.775398717029	1.17667878104	visual	right	right	tactile	NA	264.705402777	FALSE	FALSE	FALSE	FALSE	FALSE	0
p09	2015	06	17	09	18	f	18	r	4.8165301329	4	120	8.49603893701	0.992709261882	visual	right	left	visual	NA	277.380288579	FALSE	FALSE	FALSE	FALSE	TRUE	0
p09	2015	06	17	09	18	f	18	r	5.34958559298	4	121	2.5297758712	1.28769795377	visual	right	left	tactile	NA	256.135139847	FALSE	FALSE	FALSE	FALSE	FALSE	0
p09	2015	06	17	09	18	f	18	r	5.34958559298	4	122	0.962534247898	0.985818352087	visual	right	left	visual	NA	304.543526378	FALSE	FALSE	FALSE	FALSE	FALSE	0
p09	2015	06	17	09	18	f	18	r	5.34958559298	4	123	132.00778394	0.724117038583	visual	right	right	tactile	NA	290.247457102	FALSE	FALSE	FALSE	FALSE	FALSE	0
p09	2015	06	17	09	18	f	18	r	5.34958559298	4	124	0.855526521103	1.42705238473	tactile	left	right	visual	NA	312.061449746	FALSE	FALSE	FALSE	FALSE	TRUE	0
p09	2015	06	17	09	18	f	18	r	5.34958559298	4	125	0.465361442883	1.25441010075	tactile	right	left	visual	NA	282.310527051	FALSE	FALSE	FALSE	TRUE	TRUE	0
p09	2015	06	17	09	18	f	18	r	5.34958559298	4	126	0.451186817139	1.36904489563	visual	left	right	tactile	NA	210.789443227	FALSE	FALSE	FALSE	FALSE	TRUE	0
p09	2015	06	17	09	18	f	18	r	5.34958559298	4	127	0.624253649963	0.898989007524	visual	right	right	visual	NA	298.047060845	FALSE	FALSE	FALSE	FALSE	FALSE	0
p09	2015	06	17	09	18	f	18	r	5.34958559298	4	128	0.498995495029	0.819764687082	tactile	right	right	tactile	NA	187.847339781	FALSE	FALSE	FALSE	FALSE	TRUE	0
p09	2015	06	17	09	18	f	18	r	5.34958559298	4	129	0.47162858583	1.16936542897	tactile	left	right	tactile	NA	233.036305523	FALSE	FALSE	FALSE	FALSE	FALSE	0
p09	2015	06	17	09	18	f	18	r	5.34958559298	4	130	0.466777794994	0.937773115367	visual	left	left	visual	NA	401.066390099	FALSE	FALSE	FALSE	FALSE	FALSE	0
p09	2015	06	17	09	18	f	18	r	5.34958559298	4	131	0.401035586838	0.587377371756	visual	left	right	visual	NA	227.670715656	FALSE	FALSE	FALSE	TRUE	TRUE	0
p09	2015	06	17	09	18	f	18	r	5.34958559298	4	132	0.449247751851	0.730102029675	tactile	right	right	visual	NA	144.570187898	FALSE	FALSE	FALSE	FALSE	FALSE	0
