id	year	month	day	hour	minute	sex	age	handedness	message_viewing_time	block	trial_num	trial_initiation_time	fixation_duration	cue_modality	cue_location	target_location	target_modality	target_response_key	target_response_rt	pre_target_response	feedback_response	recalibration	blink	saccade	biggest_small_saccade
p10	2015	06	17	11	20	f	21	r	419.147579762	practice	1	14.2114985299	0.588237711762	tactile	right	right	tactile	NA	NA	FALSE	FALSE	FALSE	FALSE	TRUE	0
p10	2015	06	17	11	20	f	21	r	419.147579762	practice	2	2.00688555092	0.741272032419	tactile	left	right	tactile	NA	NA	FALSE	FALSE	FALSE	FALSE	TRUE	0
p10	2015	06	17	11	20	f	21	r	419.147579762	practice	3	5.28682117094	1.32721235171	visual	left	right	visual	NA	NA	FALSE	FALSE	FALSE	FALSE	TRUE	0
p10	2015	06	17	11	20	f	21	r	419.147579762	practice	4	1.63418324012	0.935263386636	visual	right	left	tactile	voice	NA	TRUE	FALSE	FALSE	FALSE	FALSE	0
p10	2015	06	17	11	20	f	21	r	419.147579762	practice	5	5.75266638794	0.858891161446	visual	left	right	visual	NA	655.969480285	FALSE	FALSE	FALSE	FALSE	FALSE	0
p10	2015	06	17	11	20	f	21	r	419.147579762	practice	6	1.485684518	0.559238029137	tactile	left	left	tactile	NA	NA	FALSE	FALSE	FALSE	FALSE	TRUE	0
p10	2015	06	17	11	20	f	21	r	419.147579762	practice	7	2.07458698703	0.843692415331	visual	right	left	tactile	NA	422.787335236	FALSE	FALSE	FALSE	FALSE	FALSE	0
p10	2015	06	17	11	20	f	21	r	419.147579762	practice	8	1.24828658719	0.832544057561	visual	right	right	visual	NA	484.759613872	FALSE	FALSE	FALSE	FALSE	FALSE	0
p10	2015	06	17	11	20	f	21	r	419.147579762	practice	9	1.86026006588	0.709012026183	visual	left	right	visual	NA	NA	FALSE	FALSE	FALSE	FALSE	TRUE	0
p10	2015	06	17	11	20	f	21	r	419.147579762	practice	10	4.35304317903	0.78123967032	tactile	left	right	tactile	NA	388.220751425	FALSE	FALSE	FALSE	FALSE	FALSE	0
p10	2015	06	17	11	20	f	21	r	419.147579762	practice	11	13.7138926159	1.46209253077	visual	right	right	tactile	NA	NA	FALSE	FALSE	FALSE	FALSE	TRUE	0
p10	2015	06	17	11	20	f	21	r	419.147579762	practice	12	2.23281996883	0.853758952982	visual	right	right	visual	NA	NA	FALSE	FALSE	FALSE	TRUE	FALSE	0
p10	2015	06	17	11	20	f	21	r	419.147579762	practice	13	1.9457248901	1.34858972347	visual	right	right	tactile	NA	NA	FALSE	FALSE	FALSE	FALSE	TRUE	0
p10	2015	06	17	11	20	f	21	r	419.147579762	practice	14	1.73892101599	0.606608780412	tactile	right	left	tactile	NA	453.714078292	FALSE	FALSE	FALSE	FALSE	FALSE	0
p10	2015	06	17	11	20	f	21	r	419.147579762	practice	15	1.41849154583	0.838065886168	visual	right	right	tactile	NA	394.270175369	FALSE	FALSE	FALSE	FALSE	FALSE	0
p10	2015	06	17	11	20	f	21	r	419.147579762	practice	16	1.41695504589	0.636778023449	tactile	left	left	visual	NA	436.097452883	FALSE	FALSE	FALSE	FALSE	FALSE	0
p10	2015	06	17	11	20	f	21	r	419.147579762	practice	17	2.77274814388	1.03962825113	visual	left	right	visual	NA	528.443354415	FALSE	FALSE	FALSE	FALSE	FALSE	0
p10	2015	06	17	11	20	f	21	r	419.147579762	practice	18	2.36302274396	1.48421783187	tactile	left	left	visual	NA	525.462024612	FALSE	FALSE	FALSE	FALSE	FALSE	0
p10	2015	06	17	11	20	f	21	r	419.147579762	practice	19	1.87001387496	1.38089999766	tactile	left	right	tactile	NA	NA	FALSE	FALSE	FALSE	FALSE	TRUE	0
p10	2015	06	17	11	20	f	21	r	419.147579762	practice	20	1.57849451108	0.830492017498	tactile	right	right	tactile	NA	465.016224887	FALSE	FALSE	FALSE	FALSE	FALSE	0
p10	2015	06	17	11	20	f	21	r	419.147579762	practice	21	1.72407393088	0.886792132209	visual	left	left	visual	NA	454.366964521	FALSE	FALSE	FALSE	FALSE	FALSE	0
p10	2015	06	17	11	20	f	21	r	419.147579762	practice	22	1.88912030589	0.784409515096	visual	right	right	visual	NA	404.872525716	FALSE	FALSE	FALSE	FALSE	FALSE	0
p10	2015	06	17	11	20	f	21	r	419.147579762	practice	23	1.22174407588	0.878698188689	tactile	left	left	visual	NA	NA	FALSE	FALSE	FALSE	FALSE	TRUE	0
p10	2015	06	17	11	20	f	21	r	419.147579762	practice	24	1.28135915799	0.558630392532	tactile	left	left	tactile	NA	478.109719232	FALSE	FALSE	FALSE	FALSE	FALSE	0
p10	2015	06	17	11	20	f	21	r	419.147579762	practice	25	5.83051997609	0.778813711772	tactile	right	right	visual	NA	440.216675634	FALSE	FALSE	FALSE	FALSE	FALSE	0
p10	2015	06	17	11	20	f	21	r	419.147579762	practice	26	1.56358295283	1.47385046157	tactile	left	left	visual	NA	NA	FALSE	FALSE	FALSE	FALSE	TRUE	0
p10	2015	06	17	11	20	f	21	r	419.147579762	practice	27	0.789950927021	1.25201212525	visual	right	right	tactile	NA	338.427458424	FALSE	FALSE	FALSE	FALSE	FALSE	0
p10	2015	06	17	11	20	f	21	r	419.147579762	practice	28	1.98459923896	0.535146636326	visual	right	right	tactile	NA	274.357583141	FALSE	FALSE	FALSE	FALSE	FALSE	0
p10	2015	06	17	11	20	f	21	r	419.147579762	practice	29	1.78441906814	1.31964143774	visual	left	right	visual	NA	NA	FALSE	FALSE	FALSE	FALSE	TRUE	0
p10	2015	06	17	11	20	f	21	r	419.147579762	practice	30	1.51677557593	1.16823772419	tactile	left	right	visual	NA	405.32933455	FALSE	FALSE	FALSE	FALSE	FALSE	0
p10	2015	06	17	11	20	f	21	r	419.147579762	practice	31	1.522092256	0.82651645013	tactile	right	left	visual	NA	317.146839341	FALSE	FALSE	FALSE	FALSE	FALSE	0
p10	2015	06	17	11	20	f	21	r	419.147579762	practice	32	1.77868670598	1.21450560617	tactile	left	right	visual	NA	423.086542403	FALSE	FALSE	FALSE	FALSE	FALSE	0
p10	2015	06	17	11	20	f	21	r	419.147579762	practice	33	1.21780872904	1.16993749267	tactile	right	left	tactile	voice	NA	TRUE	FALSE	FALSE	FALSE	FALSE	0
p10	2015	06	17	11	20	f	21	r	419.147579762	practice	34	1.977469265	1.07871841106	visual	right	right	visual	NA	476.877684472	FALSE	FALSE	FALSE	FALSE	FALSE	0
p10	2015	06	17	11	20	f	21	r	419.147579762	practice	35	3.24432374001	1.11406520628	visual	left	right	tactile	NA	299.188716104	FALSE	FALSE	FALSE	FALSE	FALSE	0
p10	2015	06	17	11	20	f	21	r	419.147579762	practice	36	6.74904246791	1.22390193434	visual	right	right	tactile	NA	NA	FALSE	FALSE	FALSE	FALSE	TRUE	0
p10	2015	06	17	11	20	f	21	r	419.147579762	practice	37	0.800026608864	1.00365488463	visual	left	right	visual	NA	NA	FALSE	FALSE	FALSE	FALSE	TRUE	0
p10	2015	06	17	11	20	f	21	r	419.147579762	practice	38	4.42748800293	1.14099613068	tactile	right	right	visual	NA	NA	FALSE	FALSE	FALSE	FALSE	TRUE	0
p10	2015	06	17	11	20	f	21	r	419.147579762	practice	39	1.24380013393	1.0012064534	tactile	right	right	tactile	NA	NA	FALSE	FALSE	FALSE	FALSE	TRUE	0
p10	2015	06	17	11	20	f	21	r	419.147579762	practice	40	1.21803916013	1.21963491304	tactile	right	right	tactile	NA	445.252973586	FALSE	FALSE	FALSE	FALSE	FALSE	0
p10	2015	06	17	11	20	f	21	r	55.304604633	practice	41	6.26051024394	1.27821477949	visual	left	right	visual	NA	299.732304178	FALSE	FALSE	FALSE	FALSE	FALSE	0
p10	2015	06	17	11	20	f	21	r	55.304604633	practice	42	5.25973148691	1.06827034031	tactile	left	catch	visual	NA	NA	FALSE	FALSE	FALSE	FALSE	FALSE	0
p10	2015	06	17	11	20	f	21	r	55.304604633	practice	43	3.19403147302	1.22801242546	visual	left	left	tactile	NA	NA	FALSE	FALSE	FALSE	FALSE	TRUE	0
p10	2015	06	17	11	20	f	21	r	55.304604633	practice	44	1.33298301394	0.928605545365	tactile	right	right	visual	NA	368.868459249	FALSE	FALSE	FALSE	FALSE	FALSE	0
p10	2015	06	17	11	20	f	21	r	55.304604633	practice	45	1.68456448102	0.861496880585	visual	right	right	visual	NA	450.20538196	FALSE	FALSE	FALSE	FALSE	FALSE	0
p10	2015	06	17	11	20	f	21	r	55.304604633	practice	46	1.54016458686	1.00390090472	tactile	left	left	visual	NA	428.378046956	FALSE	FALSE	FALSE	FALSE	FALSE	0
p10	2015	06	17	11	20	f	21	r	55.304604633	practice	47	41.47169887	0.846126384443	visual	right	catch	tactile	NA	NA	FALSE	FALSE	FALSE	FALSE	FALSE	0
p10	2015	06	17	11	20	f	21	r	55.304604633	practice	48	0.897999170935	0.509184967564	visual	left	left	tactile	NA	319.385237293	FALSE	FALSE	FALSE	FALSE	FALSE	0
p10	2015	06	17	11	20	f	21	r	55.304604633	practice	49	1.3211272161	0.943312675642	tactile	left	right	tactile	NA	NA	FALSE	FALSE	FALSE	FALSE	TRUE	0
p10	2015	06	17	11	20	f	21	r	55.304604633	practice	50	0.833621818107	1.21083163746	tactile	left	right	visual	NA	454.216337996	FALSE	FALSE	FALSE	FALSE	FALSE	0
p10	2015	06	17	11	20	f	21	r	55.304604633	practice	51	2.06472813617	1.33698037137	visual	left	right	visual	NA	NA	FALSE	FALSE	FALSE	FALSE	TRUE	0
p10	2015	06	17	11	20	f	21	r	55.304604633	practice	52	1.81254839804	0.820444976352	visual	left	right	visual	NA	338.510498172	FALSE	FALSE	FALSE	FALSE	FALSE	0
p10	2015	06	17	11	20	f	21	r	55.304604633	practice	53	2.34334465	1.42869037435	tactile	left	catch	tactile	NA	NA	FALSE	FALSE	FALSE	FALSE	TRUE	0
p10	2015	06	17	11	20	f	21	r	55.304604633	practice	54	1.92567246198	1.03081891924	tactile	left	catch	tactile	NA	NA	FALSE	FALSE	FALSE	FALSE	FALSE	0
p10	2015	06	17	11	20	f	21	r	55.304604633	practice	55	1.2148688389	0.839681888362	tactile	right	left	visual	NA	482.337086229	FALSE	FALSE	FALSE	FALSE	FALSE	0
p10	2015	06	17	11	20	f	21	r	55.304604633	practice	56	1.95237155794	1.13837710698	visual	left	right	visual	NA	NA	FALSE	FALSE	FALSE	FALSE	TRUE	0
p10	2015	06	17	11	20	f	21	r	55.304604633	practice	57	0.758001742186	0.93617243736	tactile	left	right	tactile	NA	310.732267331	FALSE	FALSE	FALSE	FALSE	FALSE	0
p10	2015	06	17	11	20	f	21	r	55.304604633	practice	58	1.31524381018	0.516683615776	visual	right	right	tactile	NA	NA	FALSE	FALSE	FALSE	FALSE	TRUE	0
p10	2015	06	17	11	20	f	21	r	55.304604633	practice	59	1.72205907595	1.3612887042	tactile	left	right	visual	NA	NA	FALSE	FALSE	FALSE	FALSE	TRUE	0
p10	2015	06	17	11	20	f	21	r	55.304604633	practice	60	1.82479354716	1.34164953792	tactile	left	right	visual	NA	419.215727597	FALSE	FALSE	FALSE	FALSE	FALSE	0
p10	2015	06	17	11	20	f	21	r	55.304604633	practice	61	1.26314537693	1.11723238689	visual	right	right	tactile	NA	366.126888664	FALSE	FALSE	FALSE	FALSE	FALSE	0
p10	2015	06	17	11	20	f	21	r	55.304604633	practice	62	1.411096917	1.00324109817	visual	left	right	visual	NA	NA	FALSE	FALSE	FALSE	FALSE	TRUE	0
p10	2015	06	17	11	20	f	21	r	55.304604633	practice	63	1.83580357605	1.16863734024	tactile	left	right	tactile	NA	NA	FALSE	FALSE	FALSE	FALSE	TRUE	0
p10	2015	06	17	11	20	f	21	r	55.304604633	practice	64	1.39456358389	1.19121447723	visual	left	right	visual	NA	NA	FALSE	FALSE	FALSE	FALSE	TRUE	0
p10	2015	06	17	11	20	f	21	r	55.304604633	practice	65	1.181848804	0.703508705488	tactile	left	right	tactile	NA	NA	FALSE	FALSE	FALSE	FALSE	TRUE	0
p10	2015	06	17	11	20	f	21	r	55.304604633	practice	66	1.26047410187	0.540583119614	tactile	left	right	tactile	NA	402.163499966	FALSE	FALSE	FALSE	FALSE	FALSE	0
p10	2015	06	17	11	20	f	21	r	55.304604633	practice	67	1.70453656907	1.25092479977	visual	left	right	visual	NA	379.954733653	FALSE	FALSE	FALSE	FALSE	FALSE	0
p10	2015	06	17	11	20	f	21	r	57.3516973641	1	1	248.344576114	1.24509546127	tactile	left	left	tactile	NA	NA	FALSE	FALSE	FALSE	FALSE	TRUE	0
p10	2015	06	17	11	20	f	21	r	57.3516973641	1	2	1.11653249688	0.765674136937	tactile	right	right	tactile	NA	838.425571565	FALSE	FALSE	FALSE	FALSE	FALSE	0
p10	2015	06	17	11	20	f	21	r	57.3516973641	1	3	0.917143944884	1.12477320341	tactile	left	left	tactile	NA	442.558568204	FALSE	FALSE	FALSE	FALSE	FALSE	0
p10	2015	06	17	11	20	f	21	r	57.3516973641	1	4	0.693247949937	0.912398620643	visual	right	right	visual	NA	427.391584963	FALSE	FALSE	FALSE	FALSE	FALSE	0
p10	2015	06	17	11	20	f	21	r	57.3516973641	1	5	0.561909671873	1.18156099749	visual	left	right	visual	NA	300.1823253	FALSE	FALSE	FALSE	FALSE	TRUE	0
p10	2015	06	17	11	20	f	21	r	57.3516973641	1	6	0.961484845029	0.904836338086	visual	left	left	visual	NA	418.266029563	FALSE	FALSE	FALSE	FALSE	TRUE	0
p10	2015	06	17	11	20	f	21	r	57.3516973641	1	7	0.532712748973	0.553030086104	visual	right	catch	visual	NA	NA	FALSE	FALSE	FALSE	FALSE	FALSE	0
p10	2015	06	17	11	20	f	21	r	57.3516973641	1	8	1.08390746987	1.31368278255	visual	right	right	tactile	NA	281.624414027	FALSE	FALSE	FALSE	FALSE	TRUE	0
p10	2015	06	17	11	20	f	21	r	57.3516973641	1	9	2.7528357571	1.20887544724	visual	right	right	visual	NA	365.073623369	FALSE	FALSE	FALSE	FALSE	FALSE	0
p10	2015	06	17	11	20	f	21	r	57.3516973641	1	10	1.14357405901	1.15955864615	visual	left	right	visual	NA	315.379703417	FALSE	FALSE	FALSE	FALSE	FALSE	0
p10	2015	06	17	11	20	f	21	r	57.3516973641	1	11	0.802942882059	1.16736985662	tactile	right	left	visual	NA	449.981636833	FALSE	FALSE	FALSE	FALSE	FALSE	0
p10	2015	06	17	11	20	f	21	r	57.3516973641	1	12	0.756808890961	0.739618898867	tactile	right	right	visual	NA	378.706885735	FALSE	FALSE	FALSE	FALSE	TRUE	0
p10	2015	06	17	11	20	f	21	r	57.3516973641	1	13	0.437556269113	0.528458097977	tactile	left	right	tactile	NA	388.51101161	FALSE	FALSE	FALSE	FALSE	TRUE	0
p10	2015	06	17	11	20	f	21	r	57.3516973641	1	14	0.394740505144	0.705184488846	visual	left	left	visual	NA	397.81909599	FALSE	FALSE	FALSE	FALSE	FALSE	0
p10	2015	06	17	11	20	f	21	r	57.3516973641	1	15	0.394065003144	1.12579902246	tactile	right	left	visual	NA	318.262706278	FALSE	FALSE	FALSE	FALSE	FALSE	0
p10	2015	06	17	11	20	f	21	r	57.3516973641	1	16	0.408730084077	1.28723366088	visual	right	left	tactile	NA	254.199229879	FALSE	FALSE	FALSE	FALSE	TRUE	0
p10	2015	06	17	11	20	f	21	r	57.3516973641	1	17	0.562297724886	0.972146059425	tactile	right	left	visual	NA	299.931327114	FALSE	FALSE	FALSE	FALSE	FALSE	0
p10	2015	06	17	11	20	f	21	r	57.3516973641	1	18	2.40483211703	0.66428225654	visual	left	right	visual	NA	288.469435181	FALSE	FALSE	FALSE	FALSE	FALSE	0
p10	2015	06	17	11	20	f	21	r	57.3516973641	1	19	1.19130207202	0.900179305815	tactile	left	catch	visual	NA	NA	FALSE	FALSE	FALSE	FALSE	FALSE	0
p10	2015	06	17	11	20	f	21	r	57.3516973641	1	20	1.43929664302	0.652766447793	visual	right	catch	tactile	NA	NA	FALSE	FALSE	FALSE	FALSE	TRUE	0
p10	2015	06	17	11	20	f	21	r	57.3516973641	1	21	1.05561618786	0.87057292796	visual	right	right	tactile	NA	284.673587652	FALSE	FALSE	FALSE	FALSE	FALSE	0
p10	2015	06	17	11	20	f	21	r	57.3516973641	1	22	0.580481851008	1.48878973318	visual	left	left	visual	NA	453.349269461	FALSE	FALSE	FALSE	FALSE	TRUE	0
p10	2015	06	17	11	20	f	21	r	57.3516973641	1	23	0.406724260887	0.642362765216	visual	left	left	tactile	NA	265.629129484	FALSE	FALSE	FALSE	FALSE	FALSE	0
p10	2015	06	17	11	20	f	21	r	57.3516973641	1	24	0.402517711045	0.846698001938	visual	right	catch	visual	NA	NA	FALSE	FALSE	FALSE	FALSE	FALSE	0
p10	2015	06	17	11	20	f	21	r	57.3516973641	1	25	0.731602885993	1.16063425842	tactile	right	catch	visual	NA	NA	FALSE	FALSE	FALSE	FALSE	FALSE	0
p10	2015	06	17	11	20	f	21	r	57.3516973641	1	26	1.35394023103	0.559796640335	visual	left	right	tactile	NA	208.078846103	FALSE	FALSE	FALSE	FALSE	FALSE	0
p10	2015	06	17	11	20	f	21	r	57.3516973641	1	27	0.39484956488	0.898300484558	visual	right	left	visual	NA	295.906729065	FALSE	FALSE	FALSE	FALSE	FALSE	0
p10	2015	06	17	11	20	f	21	r	57.3516973641	1	28	0.395206871908	0.738575374426	visual	right	left	visual	NA	289.357289206	FALSE	FALSE	FALSE	FALSE	FALSE	0
p10	2015	06	17	11	20	f	21	r	57.3516973641	1	29	0.401806180133	1.2307055072	visual	right	left	visual	NA	303.23817255	FALSE	FALSE	FALSE	FALSE	FALSE	0
p10	2015	06	17	11	20	f	21	r	57.3516973641	1	30	0.403287135996	0.838958140669	visual	right	right	visual	NA	397.392163752	FALSE	FALSE	FALSE	FALSE	FALSE	0
p10	2015	06	17	11	20	f	21	r	57.3516973641	1	31	2.46491012909	0.671154066992	visual	right	right	visual	NA	380.57004963	FALSE	FALSE	FALSE	FALSE	FALSE	0
p10	2015	06	17	11	20	f	21	r	57.3516973641	1	32	0.394934065873	0.804344053802	visual	left	catch	visual	NA	243.489233777	FALSE	FALSE	FALSE	FALSE	FALSE	0
p10	2015	06	17	11	20	f	21	r	57.3516973641	1	33	1.07715997216	0.651922686989	visual	right	left	visual	NA	318.938895827	FALSE	FALSE	FALSE	FALSE	FALSE	0
p10	2015	06	17	11	20	f	21	r	57.3516973641	1	34	0.404155894881	0.839518561776	tactile	right	left	tactile	NA	313.022729941	FALSE	FALSE	FALSE	FALSE	FALSE	0
p10	2015	06	17	11	20	f	21	r	57.3516973641	1	35	0.403794481186	1.49518301498	tactile	right	right	tactile	NA	398.453466594	FALSE	FALSE	FALSE	FALSE	TRUE	0
p10	2015	06	17	11	20	f	21	r	57.3516973641	1	36	2.2691504471	0.781431042385	visual	right	left	tactile	NA	291.438148357	FALSE	FALSE	FALSE	FALSE	TRUE	0
p10	2015	06	17	11	20	f	21	r	57.3516973641	1	37	0.402989927912	0.892836866675	tactile	left	left	visual	NA	531.120452797	FALSE	FALSE	FALSE	FALSE	TRUE	0
p10	2015	06	17	11	20	f	21	r	57.3516973641	1	38	0.786488006124	1.43804011551	tactile	left	left	visual	NA	487.496979302	FALSE	FALSE	FALSE	FALSE	FALSE	0
p10	2015	06	17	11	20	f	21	r	57.3516973641	1	39	0.414641142823	1.42583377295	tactile	left	left	visual	NA	483.007746749	FALSE	FALSE	FALSE	FALSE	FALSE	0
p10	2015	06	17	11	20	f	21	r	57.3516973641	1	40	0.409355547046	0.953389936877	tactile	left	catch	tactile	NA	NA	FALSE	FALSE	FALSE	FALSE	TRUE	0
p10	2015	06	17	11	20	f	21	r	18.6139759829	1	41	5.262332757	0.99085131917	visual	right	left	visual	NA	362.607565476	FALSE	FALSE	FALSE	FALSE	FALSE	0
p10	2015	06	17	11	20	f	21	r	18.6139759829	1	42	0.452193140984	0.53795617767	tactile	left	right	visual	NA	420.020982856	FALSE	FALSE	FALSE	FALSE	FALSE	0
p10	2015	06	17	11	20	f	21	r	18.6139759829	1	43	1.85108603397	0.919906668101	tactile	left	right	tactile	NA	321.287043625	FALSE	FALSE	FALSE	FALSE	FALSE	0
p10	2015	06	17	11	20	f	21	r	18.6139759829	1	44	0.395980969071	0.586741255481	visual	right	right	visual	NA	397.105962038	FALSE	FALSE	FALSE	FALSE	FALSE	0
p10	2015	06	17	11	20	f	21	r	18.6139759829	1	45	0.410443966044	1.14319608258	tactile	right	left	visual	NA	311.529518804	FALSE	FALSE	FALSE	FALSE	FALSE	0
p10	2015	06	17	11	20	f	21	r	18.6139759829	1	46	3.41903209686	1.07301589886	tactile	left	right	tactile	NA	258.925821865	FALSE	FALSE	FALSE	FALSE	FALSE	0
p10	2015	06	17	11	20	f	21	r	18.6139759829	1	47	0.405392818153	1.46665502199	visual	left	catch	tactile	NA	NA	FALSE	FALSE	FALSE	FALSE	FALSE	0
p10	2015	06	17	11	20	f	21	r	18.6139759829	1	48	0.723726853961	0.803200641593	visual	left	left	visual	NA	490.326432977	FALSE	FALSE	FALSE	FALSE	FALSE	0
p10	2015	06	17	11	20	f	21	r	18.6139759829	1	49	0.397641713964	0.535169588299	visual	left	right	tactile	NA	305.647948291	FALSE	FALSE	FALSE	FALSE	FALSE	0
p10	2015	06	17	11	20	f	21	r	18.6139759829	1	50	2.58375260187	0.976907029828	tactile	right	left	tactile	NA	212.162407814	FALSE	FALSE	FALSE	FALSE	FALSE	0
p10	2015	06	17	11	20	f	21	r	18.6139759829	1	51	0.451539244037	0.554608588525	visual	right	left	visual	NA	333.893378032	FALSE	FALSE	FALSE	FALSE	FALSE	0
p10	2015	06	17	11	20	f	21	r	18.6139759829	1	52	0.395940008108	1.26867040833	tactile	right	catch	tactile	NA	NA	FALSE	FALSE	FALSE	FALSE	TRUE	0
p10	2015	06	17	11	20	f	21	r	18.6139759829	1	53	1.42904011114	1.32331939684	visual	right	right	tactile	NA	266.282936558	FALSE	FALSE	FALSE	FALSE	FALSE	0
p10	2015	06	17	11	20	f	21	r	18.6139759829	1	54	3.46969157108	0.705953943284	tactile	left	catch	tactile	NA	NA	FALSE	FALSE	FALSE	FALSE	FALSE	0
p10	2015	06	17	11	20	f	21	r	18.6139759829	1	55	0.824948232854	1.45101535687	tactile	left	left	visual	NA	494.569223607	FALSE	FALSE	FALSE	FALSE	TRUE	0
p10	2015	06	17	11	20	f	21	r	18.6139759829	1	56	0.616123934975	0.690482555094	visual	right	left	tactile	NA	419.032826321	FALSE	FALSE	FALSE	FALSE	FALSE	0
p10	2015	06	17	11	20	f	21	r	18.6139759829	1	57	0.393846863881	1.03494913514	tactile	left	left	visual	NA	432.58475652	FALSE	FALSE	FALSE	FALSE	TRUE	0
p10	2015	06	17	11	20	f	21	r	18.6139759829	1	58	0.422604171094	1.20105392791	tactile	right	left	tactile	NA	317.328020697	FALSE	FALSE	FALSE	FALSE	TRUE	0
p10	2015	06	17	11	20	f	21	r	18.6139759829	1	59	0.395575996023	1.43735903954	visual	left	left	visual	voice	NA	TRUE	FALSE	FALSE	FALSE	FALSE	0
p10	2015	06	17	11	20	f	21	r	18.6139759829	1	60	1.10476534185	1.41751759351	tactile	left	right	tactile	NA	378.698403947	FALSE	FALSE	FALSE	FALSE	TRUE	0
p10	2015	06	17	11	20	f	21	r	18.6139759829	1	61	1.65845456114	0.872570166888	visual	left	left	tactile	NA	303.616289748	FALSE	FALSE	FALSE	FALSE	FALSE	0
p10	2015	06	17	11	20	f	21	r	18.6139759829	1	62	1.50616898714	1.0516046528	visual	left	left	tactile	NA	306.117774686	FALSE	FALSE	FALSE	FALSE	FALSE	0
p10	2015	06	17	11	20	f	21	r	18.6139759829	1	63	0.403561520856	0.813651617016	tactile	right	left	tactile	NA	286.646473687	FALSE	FALSE	FALSE	FALSE	FALSE	0
p10	2015	06	17	11	20	f	21	r	18.6139759829	1	64	1.56837886013	0.72740804012	visual	left	right	tactile	NA	278.926412575	FALSE	FALSE	FALSE	FALSE	TRUE	0
p10	2015	06	17	11	20	f	21	r	18.6139759829	1	65	0.396352641983	1.11051052847	visual	left	right	tactile	NA	386.532422155	FALSE	FALSE	FALSE	FALSE	TRUE	0
p10	2015	06	17	11	20	f	21	r	18.6139759829	1	66	1.88467415795	0.623617224279	visual	left	right	visual	NA	403.779775137	FALSE	FALSE	FALSE	FALSE	TRUE	0
p10	2015	06	17	11	20	f	21	r	18.6139759829	1	67	0.411784105003	1.03276728856	visual	right	left	visual	NA	354.821207933	FALSE	FALSE	FALSE	FALSE	TRUE	0
p10	2015	06	17	11	20	f	21	r	18.6139759829	1	68	0.392081458122	0.671220874557	visual	right	right	tactile	NA	226.369400043	FALSE	FALSE	FALSE	FALSE	FALSE	0
p10	2015	06	17	11	20	f	21	r	18.6139759829	1	69	1.56366809201	1.39411013855	tactile	right	right	visual	NA	378.175965976	FALSE	FALSE	FALSE	FALSE	FALSE	0
p10	2015	06	17	11	20	f	21	r	18.6139759829	1	70	0.402791243978	0.552426900864	tactile	right	right	visual	voice	NA	TRUE	FALSE	FALSE	FALSE	TRUE	0
p10	2015	06	17	11	20	f	21	r	18.6139759829	1	71	1.49721585796	0.819004070688	tactile	right	right	tactile	NA	474.09973084	FALSE	FALSE	FALSE	FALSE	TRUE	0
p10	2015	06	17	11	20	f	21	r	18.6139759829	1	72	0.391201572027	0.579481424615	visual	left	right	visual	NA	393.134382088	FALSE	FALSE	FALSE	FALSE	FALSE	0
p10	2015	06	17	11	20	f	21	r	18.6139759829	1	73	0.499868110055	1.29101602591	tactile	left	left	visual	NA	538.521105656	FALSE	FALSE	FALSE	FALSE	TRUE	0
p10	2015	06	17	11	20	f	21	r	18.6139759829	1	74	0.390007134061	0.950015698968	tactile	left	right	visual	NA	557.201986667	FALSE	FALSE	FALSE	FALSE	TRUE	0
p10	2015	06	17	11	20	f	21	r	18.6139759829	1	75	2.0846534369	1.39875029624	visual	left	right	tactile	NA	321.782808285	FALSE	FALSE	FALSE	FALSE	TRUE	0
p10	2015	06	17	11	20	f	21	r	18.6139759829	1	76	0.764605236938	1.01218230181	tactile	left	left	visual	NA	407.311376883	FALSE	FALSE	FALSE	FALSE	FALSE	0
p10	2015	06	17	11	20	f	21	r	18.6139759829	1	77	0.420538112987	1.25756146297	tactile	right	right	tactile	NA	425.266205566	FALSE	FALSE	FALSE	FALSE	FALSE	0
p10	2015	06	17	11	20	f	21	r	18.6139759829	1	78	1.47884126985	0.782118926481	tactile	left	right	tactile	NA	208.449013066	FALSE	FALSE	FALSE	FALSE	TRUE	0
p10	2015	06	17	11	20	f	21	r	18.6139759829	1	79	0.390292941127	1.18177567774	visual	left	left	tactile	NA	259.426488774	FALSE	FALSE	FALSE	FALSE	FALSE	0
p10	2015	06	17	11	20	f	21	r	18.6139759829	1	80	1.22048016614	1.00837634154	visual	right	left	visual	NA	295.353127876	FALSE	FALSE	FALSE	FALSE	TRUE	0
p10	2015	06	17	11	20	f	21	r	34.8403734611	1	81	3.14030200196	0.57362361695	visual	right	left	tactile	NA	249.907452846	FALSE	FALSE	FALSE	FALSE	TRUE	0
p10	2015	06	17	11	20	f	21	r	34.8403734611	1	82	0.406897811918	1.04433134286	tactile	left	catch	visual	NA	NA	FALSE	FALSE	FALSE	FALSE	FALSE	0
p10	2015	06	17	11	20	f	21	r	34.8403734611	1	83	2.69667222491	1.29647096482	tactile	right	right	tactile	NA	476.621223846	FALSE	FALSE	FALSE	FALSE	FALSE	0
p10	2015	06	17	11	20	f	21	r	34.8403734611	1	84	0.3975181079	1.29721057687	tactile	right	right	visual	NA	313.325371593	FALSE	FALSE	FALSE	FALSE	FALSE	0
p10	2015	06	17	11	20	f	21	r	34.8403734611	1	85	0.394128401997	1.03740679961	tactile	left	left	tactile	NA	335.828735959	FALSE	FALSE	FALSE	FALSE	FALSE	0
p10	2015	06	17	11	20	f	21	r	34.8403734611	1	86	4.62486854894	0.805444400391	visual	left	right	visual	NA	292.95536736	FALSE	FALSE	FALSE	FALSE	TRUE	0
p10	2015	06	17	11	20	f	21	r	34.8403734611	1	87	1.63175902399	0.503758181793	tactile	right	left	visual	NA	280.032399809	FALSE	FALSE	FALSE	FALSE	FALSE	0
p10	2015	06	17	11	20	f	21	r	34.8403734611	1	88	0.410917427856	0.655621396737	visual	left	left	tactile	NA	311.377348844	FALSE	FALSE	FALSE	FALSE	FALSE	0
p10	2015	06	17	11	20	f	21	r	34.8403734611	1	89	1.43931923201	0.668404744927	visual	right	left	tactile	NA	223.194050603	FALSE	FALSE	FALSE	FALSE	FALSE	0
p10	2015	06	17	11	20	f	21	r	34.8403734611	1	90	0.456376879942	0.8752523203	tactile	right	catch	tactile	NA	NA	FALSE	FALSE	FALSE	FALSE	TRUE	0
p10	2015	06	17	11	20	f	21	r	34.8403734611	1	91	1.03676509997	0.713601857877	visual	left	left	tactile	NA	341.857661726	FALSE	FALSE	FALSE	FALSE	TRUE	0
p10	2015	06	17	11	20	f	21	r	34.8403734611	1	92	1.8206066431	0.571187007196	tactile	right	right	visual	NA	316.887178458	FALSE	FALSE	FALSE	FALSE	FALSE	0
p10	2015	06	17	11	20	f	21	r	34.8403734611	1	93	0.446948613971	0.953150517812	visual	right	right	visual	NA	515.033365926	FALSE	FALSE	FALSE	FALSE	FALSE	0
p10	2015	06	17	11	20	f	21	r	34.8403734611	1	94	0.39681456401	1.00466233804	tactile	left	right	visual	NA	318.140801741	FALSE	FALSE	FALSE	FALSE	FALSE	0
p10	2015	06	17	11	20	f	21	r	34.8403734611	1	95	0.402569437167	0.858349632259	tactile	left	left	tactile	NA	290.519643342	FALSE	FALSE	FALSE	FALSE	TRUE	0
p10	2015	06	17	11	20	f	21	r	34.8403734611	1	96	0.399338472169	0.536414622088	visual	right	left	tactile	NA	242.44119646	FALSE	FALSE	FALSE	FALSE	FALSE	0
p10	2015	06	17	11	20	f	21	r	34.8403734611	1	97	1.08397921291	1.41914853873	tactile	right	right	visual	voice	NA	TRUE	FALSE	FALSE	FALSE	FALSE	0
p10	2015	06	17	11	20	f	21	r	34.8403734611	1	98	1.44495434407	0.845712914005	visual	left	left	visual	NA	447.138639633	FALSE	FALSE	FALSE	FALSE	FALSE	0
p10	2015	06	17	11	20	f	21	r	34.8403734611	1	99	0.389472982846	0.933748132788	visual	right	right	tactile	NA	186.639030697	FALSE	FALSE	FALSE	FALSE	FALSE	0
p10	2015	06	17	11	20	f	21	r	34.8403734611	1	100	0.395499560051	1.05963508045	tactile	left	right	tactile	NA	237.822415307	FALSE	FALSE	FALSE	FALSE	FALSE	0
p10	2015	06	17	11	20	f	21	r	34.8403734611	1	101	0.396598941879	0.653151080753	tactile	right	right	tactile	NA	221.351583954	FALSE	FALSE	FALSE	FALSE	FALSE	0
p10	2015	06	17	11	20	f	21	r	34.8403734611	1	102	2.44825896691	1.38187058388	tactile	right	left	visual	NA	354.119993746	FALSE	FALSE	FALSE	FALSE	TRUE	0
p10	2015	06	17	11	20	f	21	r	34.8403734611	1	103	0.795225410024	0.62057948044	tactile	left	right	tactile	NA	232.556163101	FALSE	FALSE	FALSE	FALSE	FALSE	0
p10	2015	06	17	11	20	f	21	r	34.8403734611	1	104	0.410136863124	1.38527476034	visual	left	left	tactile	NA	522.943624295	FALSE	FALSE	FALSE	FALSE	FALSE	0
p10	2015	06	17	11	20	f	21	r	34.8403734611	1	105	84.5341381989	1.16087443789	tactile	right	left	tactile	NA	389.883016935	FALSE	FALSE	FALSE	FALSE	FALSE	0
p10	2015	06	17	11	20	f	21	r	34.8403734611	1	106	0.501556884963	0.528360397599	visual	right	right	tactile	NA	277.125941124	FALSE	FALSE	FALSE	FALSE	FALSE	0
p10	2015	06	17	11	20	f	21	r	34.8403734611	1	107	0.398071188945	0.977052785384	visual	left	left	tactile	NA	145.950376056	FALSE	FALSE	FALSE	FALSE	FALSE	0
p10	2015	06	17	11	20	f	21	r	34.8403734611	1	108	0.400478537893	1.36935211622	tactile	left	left	tactile	NA	323.804424377	FALSE	FALSE	FALSE	FALSE	FALSE	0
p10	2015	06	17	11	20	f	21	r	34.8403734611	1	109	2.17473898688	0.58685034216	visual	left	left	visual	NA	238.045068458	FALSE	FALSE	FALSE	FALSE	FALSE	0
p10	2015	06	17	11	20	f	21	r	34.8403734611	1	110	0.396880770801	1.40891233958	tactile	left	right	visual	NA	199.666653294	FALSE	FALSE	FALSE	FALSE	FALSE	0
p10	2015	06	17	11	20	f	21	r	34.8403734611	1	111	3.47915812	1.01274967548	tactile	left	right	visual	NA	298.189607216	FALSE	FALSE	FALSE	FALSE	FALSE	0
p10	2015	06	17	11	20	f	21	r	34.8403734611	1	112	0.684604291106	1.31881085849	visual	right	right	visual	NA	392.639257014	FALSE	FALSE	FALSE	FALSE	FALSE	0
p10	2015	06	17	11	20	f	21	r	34.8403734611	1	113	2.16930907196	0.827778852536	visual	right	right	tactile	NA	212.241689907	FALSE	FALSE	FALSE	FALSE	FALSE	0
p10	2015	06	17	11	20	f	21	r	34.8403734611	1	114	0.411278757034	0.929293340235	visual	left	right	visual	NA	206.530860392	FALSE	FALSE	FALSE	FALSE	FALSE	0
p10	2015	06	17	11	20	f	21	r	34.8403734611	1	115	0.395680506015	0.960196899914	visual	right	right	visual	NA	275.898483582	FALSE	FALSE	FALSE	FALSE	FALSE	0
p10	2015	06	17	11	20	f	21	r	34.8403734611	1	116	3.79159005103	1.15758118186	visual	right	right	tactile	NA	198.218730511	FALSE	FALSE	FALSE	FALSE	TRUE	0
p10	2015	06	17	11	20	f	21	r	34.8403734611	1	117	2.26440660795	1.06216500352	tactile	left	right	tactile	NA	227.050986141	FALSE	FALSE	FALSE	FALSE	FALSE	0
p10	2015	06	17	11	20	f	21	r	34.8403734611	1	118	0.665854073828	1.13428909207	visual	right	left	tactile	NA	192.411813419	FALSE	FALSE	FALSE	FALSE	FALSE	0
p10	2015	06	17	11	20	f	21	r	34.8403734611	1	119	2.37248516502	1.33769416345	tactile	left	right	visual	NA	517.576648155	FALSE	FALSE	FALSE	FALSE	TRUE	0
p10	2015	06	17	11	20	f	21	r	34.8403734611	1	120	0.748318610946	0.736132585773	visual	left	left	visual	NA	423.506174935	FALSE	FALSE	FALSE	FALSE	TRUE	0
p10	2015	06	17	11	20	f	21	r	5.41742694285	1	121	2.91330225999	1.4039865106	visual	right	left	tactile	voice	NA	TRUE	FALSE	FALSE	FALSE	TRUE	0
p10	2015	06	17	11	20	f	21	r	5.41742694285	1	122	0.823771678144	0.694525363666	tactile	right	right	visual	NA	366.118441103	FALSE	FALSE	FALSE	FALSE	FALSE	0
p10	2015	06	17	11	20	f	21	r	5.41742694285	1	123	0.446743522072	0.94533166896	tactile	right	left	tactile	NA	259.848857531	FALSE	FALSE	FALSE	FALSE	FALSE	0
p10	2015	06	17	11	20	f	21	r	5.41742694285	1	124	0.401263242122	1.34826416557	tactile	right	left	visual	NA	306.427964242	FALSE	FALSE	FALSE	FALSE	TRUE	0
p10	2015	06	17	11	20	f	21	r	5.41742694285	1	125	0.401884525083	0.52898172378	tactile	left	left	tactile	NA	408.277347684	FALSE	FALSE	FALSE	FALSE	FALSE	0
p10	2015	06	17	11	20	f	21	r	5.41742694285	1	126	0.409952360904	0.989328919709	tactile	right	right	visual	NA	173.279793933	FALSE	FALSE	FALSE	FALSE	FALSE	0
p10	2015	06	17	11	20	f	21	r	5.41742694285	1	127	5.34737104503	1.47554262365	tactile	left	right	visual	NA	509.644662961	FALSE	FALSE	FALSE	FALSE	TRUE	0
p10	2015	06	17	11	20	f	21	r	5.41742694285	1	128	0.80265129311	1.01148414549	tactile	left	left	visual	NA	300.289588049	FALSE	FALSE	FALSE	FALSE	FALSE	0
p10	2015	06	17	11	20	f	21	r	5.41742694285	1	129	0.404747809982	1.4500843737	tactile	right	left	tactile	NA	232.710575685	FALSE	FALSE	FALSE	FALSE	FALSE	0
p10	2015	06	17	11	20	f	21	r	5.41742694285	1	130	0.403205500916	0.699045253318	tactile	left	left	tactile	NA	183.234622469	FALSE	FALSE	FALSE	FALSE	FALSE	0
p10	2015	06	17	11	20	f	21	r	5.41742694285	1	131	0.403708077967	1.42398236977	visual	right	left	visual	NA	294.39508589	FALSE	FALSE	FALSE	FALSE	FALSE	0
p10	2015	06	17	11	20	f	21	r	5.41742694285	1	132	0.394666940905	0.919689047455	visual	left	catch	tactile	NA	NA	FALSE	FALSE	FALSE	FALSE	FALSE	0
p10	2015	06	17	11	20	f	21	r	5.41742694285	1	133	0.756947730901	1.17076428522	visual	right	right	visual	NA	357.195968507	FALSE	FALSE	FALSE	FALSE	FALSE	0
p10	2015	06	17	11	20	f	21	r	5.41742694285	1	134	0.44684072095	1.47726598735	visual	right	catch	tactile	NA	NA	FALSE	FALSE	FALSE	FALSE	TRUE	0
p10	2015	06	17	11	20	f	21	r	5.41742694285	1	135	1.54251256795	1.08569479917	tactile	right	left	visual	NA	254.393323557	FALSE	FALSE	FALSE	FALSE	FALSE	0
p10	2015	06	17	11	20	f	21	r	5.41742694285	1	136	0.669251821935	1.11167401224	tactile	left	left	visual	NA	380.930954358	FALSE	FALSE	FALSE	FALSE	FALSE	0
p10	2015	06	17	11	20	f	21	r	5.41742694285	1	137	0.690832132008	1.36009893936	tactile	right	right	tactile	NA	307.411305141	FALSE	FALSE	FALSE	FALSE	TRUE	0
p10	2015	06	17	11	20	f	21	r	5.41742694285	1	138	0.404314582935	1.37482171233	visual	left	right	tactile	NA	226.590344217	FALSE	FALSE	FALSE	FALSE	FALSE	0
p10	2015	06	17	11	20	f	21	r	5.41742694285	1	139	0.405425860779	1.38627092762	visual	left	right	visual	NA	266.983742826	FALSE	FALSE	FALSE	FALSE	TRUE	0
p10	2015	06	17	11	20	f	21	r	5.41742694285	1	140	0.403583431849	1.33429735034	tactile	right	left	tactile	NA	200.017255032	FALSE	FALSE	FALSE	FALSE	FALSE	0
p10	2015	06	17	11	20	f	21	r	5.41742694285	1	141	0.393442193978	0.79686727648	visual	right	right	tactile	NA	337.37666416	FALSE	FALSE	FALSE	FALSE	FALSE	0
p10	2015	06	17	11	20	f	21	r	5.41742694285	1	142	3.787251506	0.517086973772	visual	left	right	visual	NA	305.037809769	FALSE	FALSE	FALSE	FALSE	TRUE	0
p10	2015	06	17	11	20	f	21	r	5.41742694285	1	143	0.390998062911	0.838498825435	visual	left	left	visual	NA	338.914735243	FALSE	FALSE	FALSE	FALSE	FALSE	0
p10	2015	06	17	11	20	f	21	r	5.41742694285	1	144	1.6901089279	0.963407461747	tactile	left	right	visual	NA	295.600743033	FALSE	FALSE	FALSE	FALSE	FALSE	0
p10	2015	06	17	11	20	f	21	r	5.41742694285	1	145	0.403346514795	0.969642922376	tactile	right	right	visual	NA	160.192219308	FALSE	FALSE	FALSE	FALSE	FALSE	0
p10	2015	06	17	11	20	f	21	r	5.41742694285	1	146	0.40081239189	0.572133847891	visual	left	right	tactile	NA	185.672287596	FALSE	FALSE	FALSE	FALSE	FALSE	0
p10	2015	06	17	11	20	f	21	r	5.41742694285	1	147	0.402587071992	1.43075969162	tactile	left	right	tactile	NA	316.299282946	FALSE	FALSE	FALSE	FALSE	FALSE	0
p10	2015	06	17	11	20	f	21	r	5.41742694285	1	148	0.394417111995	1.27384737131	visual	left	right	tactile	NA	231.428063242	FALSE	FALSE	FALSE	FALSE	TRUE	0
p10	2015	06	17	11	20	f	21	r	5.41742694285	1	149	1.49658736284	0.774595232957	tactile	right	right	tactile	NA	357.415208826	FALSE	FALSE	FALSE	FALSE	FALSE	0
p10	2015	06	17	11	20	f	21	r	5.41742694285	1	150	0.419723126804	0.955912991667	tactile	left	left	tactile	NA	233.025546884	FALSE	FALSE	FALSE	FALSE	FALSE	0
p10	2015	06	17	11	20	f	21	r	5.41742694285	1	151	0.653601458063	1.21192175722	visual	right	left	tactile	NA	195.330657298	FALSE	FALSE	FALSE	FALSE	TRUE	0
p10	2015	06	17	11	20	f	21	r	5.41742694285	1	152	0.404503767844	0.754820363283	tactile	right	right	tactile	NA	320.596232312	FALSE	FALSE	FALSE	FALSE	TRUE	0
p10	2015	06	17	11	20	f	21	r	5.41742694285	1	153	0.667316633044	1.36640910924	visual	left	left	tactile	NA	229.008524446	FALSE	FALSE	FALSE	FALSE	FALSE	0
p10	2015	06	17	11	20	f	21	r	5.41742694285	1	154	0.668656880967	1.42579937808	tactile	right	catch	visual	NA	NA	FALSE	FALSE	FALSE	FALSE	TRUE	0
p10	2015	06	17	11	20	f	21	r	5.41742694285	1	155	1.12975943298	0.740483050804	visual	left	catch	visual	NA	NA	FALSE	FALSE	FALSE	FALSE	FALSE	0
p10	2015	06	17	11	20	f	21	r	5.41742694285	1	156	1.39759801305	1.2504216164	tactile	right	left	tactile	NA	277.00943104	FALSE	FALSE	FALSE	FALSE	FALSE	0
p10	2015	06	17	11	20	f	21	r	5.41742694285	1	157	0.850146307843	1.24221299294	tactile	left	left	tactile	NA	326.397991739	FALSE	FALSE	FALSE	FALSE	FALSE	0
p10	2015	06	17	11	20	f	21	r	5.41742694285	1	158	0.543514552992	0.624954668381	tactile	left	right	visual	NA	433.908953331	FALSE	FALSE	FALSE	FALSE	TRUE	0
p10	2015	06	17	11	20	f	21	r	5.41742694285	1	159	0.396219814895	0.820305448972	tactile	right	left	visual	NA	65.6146006659	FALSE	FALSE	FALSE	FALSE	FALSE	0
p10	2015	06	17	11	20	f	21	r	5.41742694285	1	160	2.42922478495	0.873957613391	visual	left	right	tactile	NA	228.823952144	FALSE	FALSE	FALSE	FALSE	FALSE	0
p10	2015	06	17	11	20	f	21	r	28.768864068	2	1	3.58557752287	1.03609247911	tactile	left	left	visual	NA	704.577792669	FALSE	FALSE	FALSE	FALSE	TRUE	0
p10	2015	06	17	11	20	f	21	r	28.768864068	2	2	0.706697180169	1.10630777796	visual	right	right	visual	NA	347.159749363	FALSE	FALSE	FALSE	FALSE	FALSE	0
p10	2015	06	17	11	20	f	21	r	28.768864068	2	3	0.394728510873	0.765123677159	visual	right	right	tactile	NA	220.999088371	FALSE	FALSE	FALSE	FALSE	FALSE	0
p10	2015	06	17	11	20	f	21	r	28.768864068	2	4	1.81323736394	1.2852195936	visual	left	right	tactile	NA	257.614247035	FALSE	FALSE	FALSE	FALSE	FALSE	0
p10	2015	06	17	11	20	f	21	r	28.768864068	2	5	0.393797660945	1.27297394756	tactile	right	left	visual	voice	NA	TRUE	FALSE	FALSE	FALSE	TRUE	0
p10	2015	06	17	11	20	f	21	r	28.768864068	2	6	0.930700783152	1.33937060625	tactile	right	right	tactile	NA	347.263446543	FALSE	FALSE	FALSE	FALSE	FALSE	0
p10	2015	06	17	11	20	f	21	r	28.768864068	2	7	0.422759784153	1.42417364891	tactile	left	right	visual	NA	262.684394838	FALSE	FALSE	FALSE	FALSE	FALSE	0
p10	2015	06	17	11	20	f	21	r	28.768864068	2	8	0.396673945943	1.11846548999	tactile	left	right	tactile	NA	250.167854596	FALSE	FALSE	FALSE	FALSE	FALSE	0
p10	2015	06	17	11	20	f	21	r	28.768864068	2	9	0.39199207793	1.0093087798	visual	right	right	tactile	NA	257.891758811	FALSE	FALSE	FALSE	FALSE	FALSE	0
p10	2015	06	17	11	20	f	21	r	28.768864068	2	10	0.396962757921	0.770950316432	visual	right	catch	tactile	NA	294.168650173	FALSE	FALSE	FALSE	FALSE	FALSE	0
p10	2015	06	17	11	20	f	21	r	28.768864068	2	11	0.867440742208	1.25978378645	tactile	left	right	visual	NA	348.111011088	FALSE	FALSE	FALSE	FALSE	TRUE	0
p10	2015	06	17	11	20	f	21	r	28.768864068	2	12	3.29180895607	0.792656788128	tactile	left	left	tactile	NA	189.472735394	FALSE	FALSE	FALSE	FALSE	FALSE	0
p10	2015	06	17	11	20	f	21	r	28.768864068	2	13	0.682497322094	0.60080911046	visual	right	left	tactile	NA	153.571030125	FALSE	FALSE	FALSE	FALSE	FALSE	0
p10	2015	06	17	11	20	f	21	r	28.768864068	2	14	2.47156284912	0.7191827809	tactile	left	catch	visual	NA	252.428429667	FALSE	FALSE	FALSE	FALSE	FALSE	0
p10	2015	06	17	11	20	f	21	r	28.768864068	2	15	4.09071483719	1.17340926207	visual	left	catch	tactile	NA	NA	FALSE	FALSE	FALSE	FALSE	TRUE	0
p10	2015	06	17	11	20	f	21	r	28.768864068	2	16	0.637797513977	0.962739844558	tactile	left	right	tactile	NA	265.535917832	FALSE	FALSE	FALSE	FALSE	FALSE	0
p10	2015	06	17	11	20	f	21	r	28.768864068	2	17	0.404285268858	1.10212732274	tactile	right	catch	tactile	NA	NA	FALSE	FALSE	FALSE	FALSE	TRUE	0
p10	2015	06	17	11	20	f	21	r	28.768864068	2	18	0.457335417857	1.33274177395	tactile	right	right	visual	NA	328.917616745	FALSE	FALSE	FALSE	FALSE	FALSE	0
p10	2015	06	17	11	20	f	21	r	28.768864068	2	19	0.396150614135	0.636811358265	visual	left	left	tactile	NA	310.105811572	FALSE	FALSE	FALSE	FALSE	FALSE	0
p10	2015	06	17	11	20	f	21	r	28.768864068	2	20	1.12404341088	1.45861989956	tactile	right	right	visual	NA	392.626588931	FALSE	FALSE	FALSE	FALSE	FALSE	0
p10	2015	06	17	11	20	f	21	r	28.768864068	2	21	0.39892265317	0.854225862449	tactile	right	left	visual	NA	301.660899073	FALSE	FALSE	FALSE	FALSE	FALSE	0
p10	2015	06	17	11	20	f	21	r	28.768864068	2	22	0.402794916881	1.09231375006	visual	right	right	visual	NA	410.236422671	FALSE	FALSE	FALSE	FALSE	FALSE	0
p10	2015	06	17	11	20	f	21	r	28.768864068	2	23	0.400892232079	0.829366314811	visual	right	right	tactile	NA	273.652964737	FALSE	FALSE	FALSE	FALSE	FALSE	0
p10	2015	06	17	11	20	f	21	r	28.768864068	2	24	3.02559158788	0.556582781141	tactile	right	left	visual	NA	306.304770522	FALSE	FALSE	FALSE	FALSE	TRUE	0
p10	2015	06	17	11	20	f	21	r	28.768864068	2	25	0.393764923094	1.34356483555	visual	left	right	visual	NA	317.603477044	FALSE	FALSE	FALSE	FALSE	FALSE	0
p10	2015	06	17	11	20	f	21	r	28.768864068	2	26	0.395782893989	0.802600650116	tactile	right	left	tactile	NA	199.824856361	FALSE	FALSE	FALSE	FALSE	FALSE	0
p10	2015	06	17	11	20	f	21	r	28.768864068	2	27	1.68116701394	1.05266669861	tactile	right	right	visual	NA	69.8833819479	FALSE	FALSE	FALSE	FALSE	FALSE	0
p10	2015	06	17	11	20	f	21	r	28.768864068	2	28	0.796933771111	1.39459293421	tactile	left	right	tactile	NA	234.441566281	FALSE	FALSE	FALSE	FALSE	TRUE	0
p10	2015	06	17	11	20	f	21	r	28.768864068	2	29	1.20237158495	1.32445702099	tactile	left	right	visual	NA	286.961416714	FALSE	FALSE	FALSE	FALSE	FALSE	0
p10	2015	06	17	11	20	f	21	r	28.768864068	2	30	0.405919822864	0.574888342188	visual	left	right	visual	NA	361.901627388	FALSE	FALSE	FALSE	FALSE	FALSE	0
p10	2015	06	17	11	20	f	21	r	28.768864068	2	31	0.404848180013	0.83996375527	visual	right	right	tactile	NA	244.67429216	FALSE	FALSE	FALSE	FALSE	FALSE	0
p10	2015	06	17	11	20	f	21	r	28.768864068	2	32	1.45811395184	1.08728036267	visual	right	left	tactile	NA	227.282747859	FALSE	FALSE	FALSE	FALSE	FALSE	0
p10	2015	06	17	11	20	f	21	r	28.768864068	2	33	0.407834647922	1.04462762898	tactile	right	left	visual	NA	280.496193562	FALSE	FALSE	FALSE	FALSE	FALSE	0
p10	2015	06	17	11	20	f	21	r	28.768864068	2	34	0.405872749863	1.45404349275	tactile	right	right	tactile	NA	341.64964105	FALSE	FALSE	FALSE	FALSE	FALSE	0
p10	2015	06	17	11	20	f	21	r	28.768864068	2	35	2.83370523807	0.724616214234	tactile	left	left	tactile	NA	202.835782431	FALSE	FALSE	FALSE	FALSE	TRUE	0
p10	2015	06	17	11	20	f	21	r	28.768864068	2	36	0.385486627929	0.792314842456	visual	right	left	visual	NA	251.425615279	FALSE	FALSE	FALSE	FALSE	FALSE	0
p10	2015	06	17	11	20	f	21	r	28.768864068	2	37	0.390150906984	1.24068822385	visual	left	right	tactile	NA	270.84755688	FALSE	FALSE	FALSE	FALSE	FALSE	0
p10	2015	06	17	11	20	f	21	r	28.768864068	2	38	0.402024121024	0.844639349919	visual	right	left	tactile	NA	304.820094723	FALSE	FALSE	FALSE	FALSE	TRUE	0
p10	2015	06	17	11	20	f	21	r	28.768864068	2	39	0.40750636789	1.04818229811	visual	left	catch	visual	NA	NA	FALSE	FALSE	FALSE	FALSE	FALSE	0
p10	2015	06	17	11	20	f	21	r	28.768864068	2	40	2.549563698	0.911853748652	tactile	right	right	tactile	NA	358.929262962	FALSE	FALSE	FALSE	FALSE	FALSE	0
p10	2015	06	17	11	20	f	21	r	4.25630362402	2	41	1.16153765889	0.773084379144	tactile	left	left	visual	NA	401.430170517	FALSE	FALSE	FALSE	FALSE	TRUE	0
p10	2015	06	17	11	20	f	21	r	4.25630362402	2	42	0.73272111197	1.02660804513	tactile	right	left	tactile	NA	253.373707412	FALSE	FALSE	FALSE	FALSE	FALSE	0
p10	2015	06	17	11	20	f	21	r	4.25630362402	2	43	0.673869395163	0.691717447691	visual	left	left	visual	NA	273.106132867	FALSE	FALSE	FALSE	FALSE	FALSE	0
p10	2015	06	17	11	20	f	21	r	4.25630362402	2	44	0.407984153135	1.20845097371	visual	right	left	visual	NA	276.797276922	FALSE	FALSE	FALSE	FALSE	FALSE	0
p10	2015	06	17	11	20	f	21	r	4.25630362402	2	45	0.402495934861	0.789001325884	visual	left	right	visual	NA	304.24103979	FALSE	FALSE	FALSE	FALSE	TRUE	0
p10	2015	06	17	11	20	f	21	r	4.25630362402	2	46	0.397393972147	1.48835678017	visual	right	catch	visual	NA	99.9675125349	FALSE	FALSE	FALSE	FALSE	TRUE	0
p10	2015	06	17	11	20	f	21	r	4.25630362402	2	47	0.694456978934	0.843399301409	tactile	right	right	visual	NA	359.178879298	FALSE	FALSE	FALSE	FALSE	FALSE	0
p10	2015	06	17	11	20	f	21	r	4.25630362402	2	48	1.0599614149	0.789910873457	visual	right	left	tactile	NA	230.96890212	FALSE	FALSE	FALSE	FALSE	TRUE	0
p10	2015	06	17	11	20	f	21	r	4.25630362402	2	49	0.402883158997	1.45585022777	tactile	right	right	tactile	NA	381.401727907	FALSE	FALSE	FALSE	FALSE	FALSE	0
p10	2015	06	17	11	20	f	21	r	4.25630362402	2	50	0.558420603164	0.943755970385	tactile	right	catch	visual	NA	NA	FALSE	FALSE	FALSE	FALSE	FALSE	0
p10	2015	06	17	11	20	f	21	r	4.25630362402	2	51	0.637121547014	1.11736936015	tactile	left	right	visual	NA	331.320649479	FALSE	FALSE	FALSE	FALSE	FALSE	0
p10	2015	06	17	11	20	f	21	r	4.25630362402	2	52	1.21359591512	1.3729660831	visual	right	left	tactile	NA	262.830421561	FALSE	FALSE	FALSE	FALSE	FALSE	0
p10	2015	06	17	11	20	f	21	r	4.25630362402	2	53	0.414418657077	0.898488710385	tactile	left	left	tactile	NA	309.078296181	FALSE	FALSE	FALSE	FALSE	TRUE	0
p10	2015	06	17	11	20	f	21	r	4.25630362402	2	54	0.519899229985	1.42033889892	tactile	right	catch	tactile	NA	NA	FALSE	FALSE	FALSE	FALSE	TRUE	0
p10	2015	06	17	11	20	f	21	r	4.25630362402	2	55	1.42205425515	0.717593844695	tactile	left	left	tactile	NA	214.076364646	FALSE	FALSE	FALSE	FALSE	FALSE	0
p10	2015	06	17	11	20	f	21	r	4.25630362402	2	56	0.404709369875	0.554073479882	visual	right	left	visual	NA	379.568093689	FALSE	FALSE	FALSE	FALSE	TRUE	0
p10	2015	06	17	11	20	f	21	r	4.25630362402	2	57	0.403094813926	1.06267852747	visual	left	left	visual	NA	286.680374993	FALSE	FALSE	FALSE	FALSE	TRUE	0
p10	2015	06	17	11	20	f	21	r	4.25630362402	2	58	0.396020942135	1.09418396493	tactile	left	right	tactile	NA	259.107994614	FALSE	FALSE	FALSE	FALSE	TRUE	0
p10	2015	06	17	11	20	f	21	r	4.25630362402	2	59	2.85760117299	1.48906701597	visual	right	catch	tactile	NA	NA	FALSE	FALSE	FALSE	FALSE	TRUE	0
p10	2015	06	17	11	20	f	21	r	4.25630362402	2	60	1.27162348595	1.09109062005	tactile	right	left	visual	NA	407.81229455	FALSE	FALSE	FALSE	FALSE	FALSE	0
p10	2015	06	17	11	20	f	21	r	4.25630362402	2	61	0.607444814872	0.614883007132	visual	left	right	tactile	NA	317.386297509	FALSE	FALSE	FALSE	FALSE	FALSE	0
p10	2015	06	17	11	20	f	21	r	4.25630362402	2	62	0.725012345938	1.17182974274	tactile	right	right	visual	NA	344.327200903	FALSE	FALSE	FALSE	FALSE	TRUE	0
p10	2015	06	17	11	20	f	21	r	4.25630362402	2	63	0.399462544825	1.36462571	visual	right	right	visual	voice	NA	TRUE	FALSE	FALSE	FALSE	TRUE	0
p10	2015	06	17	11	20	f	21	r	4.25630362402	2	64	0.753915715963	0.717936266896	tactile	left	left	visual	NA	470.044484595	FALSE	FALSE	FALSE	FALSE	FALSE	0
p10	2015	06	17	11	20	f	21	r	4.25630362402	2	65	0.395713034086	1.43043004759	visual	left	right	tactile	NA	325.227807974	FALSE	FALSE	FALSE	FALSE	TRUE	0
p10	2015	06	17	11	20	f	21	r	4.25630362402	2	66	0.755986940116	0.622149011889	visual	right	right	visual	NA	406.967732823	FALSE	FALSE	FALSE	FALSE	FALSE	0
p10	2015	06	17	11	20	f	21	r	4.25630362402	2	67	0.394960206002	0.885458774454	tactile	right	right	visual	NA	327.476831153	FALSE	FALSE	FALSE	FALSE	FALSE	0
p10	2015	06	17	11	20	f	21	r	4.25630362402	2	68	0.399873631075	1.39617909102	visual	left	right	tactile	NA	195.198750589	FALSE	FALSE	FALSE	FALSE	TRUE	0
p10	2015	06	17	11	20	f	21	r	4.25630362402	2	69	0.396271772915	0.960500904204	tactile	left	right	visual	NA	252.463202458	FALSE	FALSE	FALSE	FALSE	FALSE	0
p10	2015	06	17	11	20	f	21	r	4.25630362402	2	70	1.69503179891	1.09271707234	tactile	left	right	tactile	NA	318.168843398	FALSE	FALSE	FALSE	FALSE	FALSE	0
p10	2015	06	17	11	20	f	21	r	4.25630362402	2	71	0.755607353058	0.773545287394	tactile	left	right	tactile	NA	284.373084316	FALSE	FALSE	FALSE	FALSE	TRUE	0
p10	2015	06	17	11	20	f	21	r	4.25630362402	2	72	0.397070288891	1.23159623859	visual	left	left	tactile	NA	221.003171988	FALSE	FALSE	FALSE	FALSE	FALSE	0
p10	2015	06	17	11	20	f	21	r	4.25630362402	2	73	1.99841703405	0.687758414732	tactile	left	left	tactile	NA	187.042546924	FALSE	FALSE	FALSE	FALSE	TRUE	0
p10	2015	06	17	11	20	f	21	r	4.25630362402	2	74	0.399080762872	1.13551556859	visual	left	left	visual	NA	265.654139221	FALSE	FALSE	FALSE	FALSE	TRUE	0
p10	2015	06	17	11	20	f	21	r	4.25630362402	2	75	0.394057034981	0.72307714687	tactile	right	left	tactile	NA	450.845401967	FALSE	FALSE	FALSE	FALSE	FALSE	0
p10	2015	06	17	11	20	f	21	r	4.25630362402	2	76	0.393377701053	1.3032254637	tactile	right	left	tactile	NA	234.353140928	FALSE	FALSE	FALSE	FALSE	TRUE	0
p10	2015	06	17	11	20	f	21	r	4.25630362402	2	77	0.39597952296	0.921048901395	visual	left	right	tactile	NA	223.624935141	FALSE	FALSE	FALSE	FALSE	FALSE	0
p10	2015	06	17	11	20	f	21	r	4.25630362402	2	78	0.405030556023	1.25165015437	visual	left	left	visual	NA	298.220541328	FALSE	FALSE	FALSE	FALSE	FALSE	0
p10	2015	06	17	11	20	f	21	r	4.25630362402	2	79	0.396851691883	0.918315491304	tactile	right	right	tactile	NA	253.832066199	FALSE	FALSE	FALSE	FALSE	TRUE	0
p10	2015	06	17	11	20	f	21	r	4.25630362402	2	80	0.401330715977	0.594355384814	visual	right	right	tactile	NA	230.357776862	FALSE	FALSE	FALSE	FALSE	FALSE	0
p10	2015	06	17	11	20	f	21	r	3.24600722594	2	81	2.08224451588	1.42085937705	visual	left	left	tactile	NA	264.474422438	FALSE	FALSE	FALSE	FALSE	FALSE	0
p10	2015	06	17	11	20	f	21	r	3.24600722594	2	82	0.640285098925	0.903045407911	tactile	right	right	visual	voice	NA	TRUE	FALSE	FALSE	FALSE	FALSE	0
p10	2015	06	17	11	20	f	21	r	3.24600722594	2	83	0.909591361182	0.952575959614	visual	left	left	tactile	NA	228.041112889	FALSE	FALSE	FALSE	FALSE	TRUE	0
p10	2015	06	17	11	20	f	21	r	3.24600722594	2	84	0.394540264038	1.11406680967	tactile	left	left	visual	NA	403.941732831	FALSE	FALSE	FALSE	FALSE	FALSE	0
p10	2015	06	17	11	20	f	21	r	3.24600722594	2	85	0.413022519089	1.26809884608	visual	right	left	visual	NA	349.531379528	FALSE	FALSE	FALSE	FALSE	FALSE	0
p10	2015	06	17	11	20	f	21	r	3.24600722594	2	86	0.393678736174	1.18250487099	visual	left	left	visual	NA	364.900255809	FALSE	FALSE	FALSE	FALSE	FALSE	0
p10	2015	06	17	11	20	f	21	r	3.24600722594	2	87	1.68377325987	1.07051395919	visual	right	left	visual	NA	292.592771351	FALSE	FALSE	FALSE	FALSE	TRUE	0
p10	2015	06	17	11	20	f	21	r	3.24600722594	2	88	0.399668839062	1.37088666688	visual	left	right	visual	NA	180.205566576	FALSE	FALSE	FALSE	FALSE	FALSE	0
p10	2015	06	17	11	20	f	21	r	3.24600722594	2	89	0.394557791995	1.47930955806	visual	left	right	visual	NA	345.472864341	FALSE	FALSE	FALSE	FALSE	TRUE	0
p10	2015	06	17	11	20	f	21	r	3.24600722594	2	90	2.09640619298	1.34485563347	tactile	right	right	tactile	NA	276.487895055	FALSE	FALSE	FALSE	FALSE	FALSE	0
p10	2015	06	17	11	20	f	21	r	3.24600722594	2	91	0.398739953991	0.533502636751	tactile	left	left	visual	NA	490.643688943	FALSE	FALSE	FALSE	FALSE	TRUE	0
p10	2015	06	17	11	20	f	21	r	3.24600722594	2	92	0.497845384991	0.852448221353	tactile	left	right	visual	NA	345.546039287	FALSE	FALSE	FALSE	FALSE	TRUE	0
p10	2015	06	17	11	20	f	21	r	3.24600722594	2	93	0.403766273055	1.27157246776	tactile	right	right	tactile	NA	275.741622783	FALSE	FALSE	FALSE	FALSE	TRUE	0
p10	2015	06	17	11	20	f	21	r	3.24600722594	2	94	0.395244555082	1.09328132141	tactile	right	left	visual	NA	172.41254705	FALSE	FALSE	FALSE	FALSE	TRUE	0
p10	2015	06	17	11	20	f	21	r	3.24600722594	2	95	0.397284597158	0.549823447697	visual	left	left	visual	NA	390.126142185	FALSE	FALSE	FALSE	FALSE	TRUE	0
p10	2015	06	17	11	20	f	21	r	3.24600722594	2	96	1.37845711899	0.864601015757	visual	left	catch	visual	NA	NA	FALSE	FALSE	FALSE	FALSE	FALSE	0
p10	2015	06	17	11	20	f	21	r	3.24600722594	2	97	1.34868690697	0.605420351697	tactile	right	right	visual	NA	202.085218858	FALSE	FALSE	FALSE	FALSE	FALSE	0
p10	2015	06	17	11	20	f	21	r	3.24600722594	2	98	1.77508839197	0.750668547884	visual	left	right	tactile	NA	279.278396629	FALSE	FALSE	FALSE	FALSE	TRUE	0
p10	2015	06	17	11	20	f	21	r	3.24600722594	2	99	1.79561545793	0.577825455241	visual	left	left	tactile	NA	281.461437233	FALSE	FALSE	FALSE	FALSE	TRUE	0
p10	2015	06	17	11	20	f	21	r	3.24600722594	2	100	0.396777662914	0.941844684225	visual	left	right	visual	NA	201.63699938	FALSE	FALSE	FALSE	FALSE	FALSE	0
p10	2015	06	17	11	20	f	21	r	3.24600722594	2	101	0.391955472995	1.14887326149	tactile	left	left	tactile	NA	267.031860305	FALSE	FALSE	FALSE	FALSE	TRUE	0
p10	2015	06	17	11	20	f	21	r	3.24600722594	2	102	4.39230687916	1.3932985531	visual	right	left	visual	NA	241.474867566	FALSE	FALSE	FALSE	FALSE	FALSE	0
p10	2015	06	17	11	20	f	21	r	3.24600722594	2	103	0.469181783032	0.746896840845	tactile	right	left	tactile	NA	189.998899819	FALSE	FALSE	FALSE	FALSE	FALSE	0
p10	2015	06	17	11	20	f	21	r	3.24600722594	2	104	1.48458860116	0.73831921766	visual	left	left	tactile	NA	230.121026048	FALSE	FALSE	FALSE	FALSE	FALSE	0
p10	2015	06	17	11	20	f	21	r	3.24600722594	2	105	0.404155000811	0.992325661344	tactile	left	left	tactile	NA	243.589052465	FALSE	FALSE	FALSE	FALSE	TRUE	0
p10	2015	06	17	11	20	f	21	r	3.24600722594	2	106	0.400270684157	1.25617847222	tactile	left	right	tactile	NA	279.516628478	FALSE	FALSE	FALSE	FALSE	FALSE	0
p10	2015	06	17	11	20	f	21	r	3.24600722594	2	107	0.401605751133	0.873274325355	tactile	right	left	tactile	NA	154.982794309	FALSE	FALSE	FALSE	FALSE	TRUE	0
p10	2015	06	17	11	20	f	21	r	3.24600722594	2	108	0.403397720074	1.43234189171	visual	left	right	visual	NA	343.434404815	FALSE	FALSE	FALSE	FALSE	TRUE	0
p10	2015	06	17	11	20	f	21	r	3.24600722594	2	109	0.393022472039	0.992750727048	tactile	left	left	visual	NA	312.770803692	FALSE	FALSE	FALSE	FALSE	FALSE	0
p10	2015	06	17	11	20	f	21	r	3.24600722594	2	110	1.38024049508	0.516921014869	visual	left	left	visual	NA	283.804368926	FALSE	FALSE	FALSE	FALSE	FALSE	0
p10	2015	06	17	11	20	f	21	r	3.24600722594	2	111	0.395556383999	0.976739307394	visual	right	right	tactile	NA	242.091767024	FALSE	FALSE	FALSE	FALSE	TRUE	0
p10	2015	06	17	11	20	f	21	r	3.24600722594	2	112	1.3488421489	0.545624075089	visual	left	left	visual	NA	378.544380656	FALSE	FALSE	FALSE	FALSE	FALSE	0
p10	2015	06	17	11	20	f	21	r	3.24600722594	2	113	0.404620525893	1.47390415677	tactile	right	right	tactile	NA	393.863933859	FALSE	FALSE	FALSE	FALSE	FALSE	0
p10	2015	06	17	11	20	f	21	r	3.24600722594	2	114	1.27784964815	0.620831502022	tactile	left	catch	visual	NA	233.118728502	FALSE	FALSE	FALSE	FALSE	TRUE	0
p10	2015	06	17	11	20	f	21	r	3.24600722594	2	115	0.846587745938	0.935845317791	tactile	left	right	tactile	NA	311.257201713	FALSE	FALSE	FALSE	FALSE	FALSE	0
p10	2015	06	17	11	20	f	21	r	3.24600722594	2	116	0.401602142025	1.43303661151	visual	right	left	tactile	NA	476.540039293	FALSE	FALSE	FALSE	FALSE	TRUE	0
p10	2015	06	17	11	20	f	21	r	3.24600722594	2	117	0.395203576889	0.741316125849	visual	right	left	tactile	NA	261.657211697	FALSE	FALSE	FALSE	FALSE	FALSE	0
p10	2015	06	17	11	20	f	21	r	3.24600722594	2	118	0.742988070007	0.693568371734	tactile	left	left	visual	NA	347.665088018	FALSE	FALSE	FALSE	FALSE	FALSE	0
p10	2015	06	17	11	20	f	21	r	3.24600722594	2	119	0.47102288017	1.38115768666	visual	left	left	tactile	NA	276.928070001	FALSE	FALSE	FALSE	FALSE	TRUE	0
p10	2015	06	17	11	20	f	21	r	3.24600722594	2	120	0.393123819958	0.753098431227	tactile	left	right	visual	NA	106.600493426	FALSE	FALSE	FALSE	FALSE	TRUE	0
p10	2015	06	17	11	20	f	21	r	201.340308071	2	121	54.8456233481	1.04463727888	visual	right	left	visual	NA	310.98270067	FALSE	FALSE	FALSE	FALSE	FALSE	0
p10	2015	06	17	11	20	f	21	r	201.340308071	2	122	0.404832157074	0.966368135438	tactile	right	catch	visual	NA	254.366901936	FALSE	FALSE	FALSE	FALSE	FALSE	0
p10	2015	06	17	11	20	f	21	r	201.340308071	2	123	0.399479866028	1.13398475866	visual	right	left	tactile	NA	217.721014051	FALSE	FALSE	FALSE	FALSE	FALSE	0
p10	2015	06	17	11	20	f	21	r	201.340308071	2	124	2.16698780912	1.47078431182	visual	right	left	tactile	NA	261.915603653	FALSE	FALSE	FALSE	FALSE	FALSE	0
p10	2015	06	17	11	20	f	21	r	201.340308071	2	125	0.393141764915	1.30839469042	tactile	right	right	visual	NA	269.738312112	FALSE	FALSE	FALSE	FALSE	TRUE	0
p10	2015	06	17	11	20	f	21	r	201.340308071	2	126	0.40221633506	0.943985970061	visual	right	left	visual	NA	257.134057581	FALSE	FALSE	FALSE	FALSE	TRUE	0
p10	2015	06	17	11	20	f	21	r	201.340308071	2	127	0.402313484112	1.39820219938	visual	left	left	tactile	NA	224.879657151	FALSE	FALSE	FALSE	FALSE	FALSE	0
p10	2015	06	17	11	20	f	21	r	201.340308071	2	128	0.399908194086	0.91462129266	tactile	left	left	visual	NA	254.353082972	FALSE	FALSE	FALSE	FALSE	FALSE	0
p10	2015	06	17	11	20	f	21	r	201.340308071	2	129	0.392676545074	0.937228909681	tactile	left	left	tactile	NA	178.148648934	FALSE	FALSE	FALSE	FALSE	FALSE	0
p10	2015	06	17	11	20	f	21	r	201.340308071	2	130	0.402684715111	1.07415947955	visual	right	right	tactile	NA	215.199783212	FALSE	FALSE	FALSE	FALSE	FALSE	0
p10	2015	06	17	11	20	f	21	r	201.340308071	2	131	0.399776009843	1.11362245124	tactile	right	left	visual	NA	210.310651455	FALSE	FALSE	FALSE	FALSE	FALSE	0
p10	2015	06	17	11	20	f	21	r	201.340308071	2	132	0.39210839686	0.85022998009	tactile	left	catch	tactile	NA	56.058409391	FALSE	FALSE	FALSE	FALSE	FALSE	0
p10	2015	06	17	11	20	f	21	r	201.340308071	2	133	0.450069386978	1.28598434697	visual	right	right	visual	NA	273.18765386	FALSE	FALSE	FALSE	FALSE	FALSE	0
p10	2015	06	17	11	20	f	21	r	201.340308071	2	134	0.402565299068	1.37102157794	visual	left	left	visual	NA	105.900271796	FALSE	FALSE	FALSE	FALSE	FALSE	0
p10	2015	06	17	11	20	f	21	r	201.340308071	2	135	0.392119806027	0.976928982021	tactile	left	right	visual	NA	209.904271644	FALSE	FALSE	FALSE	FALSE	FALSE	0
p10	2015	06	17	11	20	f	21	r	201.340308071	2	136	2.07589540211	1.04516817018	visual	right	right	tactile	voice	NA	TRUE	FALSE	FALSE	FALSE	FALSE	0
p10	2015	06	17	11	20	f	21	r	201.340308071	2	137	0.944540644996	0.944023986091	visual	right	right	visual	NA	532.84789552	FALSE	FALSE	FALSE	FALSE	FALSE	0
p10	2015	06	17	11	20	f	21	r	201.340308071	2	138	0.400125426939	1.32551594325	visual	right	catch	visual	NA	93.4642632492	FALSE	FALSE	FALSE	FALSE	TRUE	0
p10	2015	06	17	11	20	f	21	r	201.340308071	2	139	0.402007366996	1.32183205001	visual	right	right	visual	NA	172.429623548	FALSE	FALSE	FALSE	FALSE	FALSE	0
p10	2015	06	17	11	20	f	21	r	201.340308071	2	140	0.3946405272	0.722752109519	visual	left	catch	tactile	NA	NA	FALSE	FALSE	FALSE	FALSE	FALSE	0
p10	2015	06	17	11	20	f	21	r	201.340308071	2	141	0.468317546882	1.23337987068	visual	left	right	tactile	NA	213.051849976	FALSE	FALSE	FALSE	FALSE	FALSE	0
p10	2015	06	17	11	20	f	21	r	201.340308071	2	142	0.382229718147	0.519207958679	tactile	left	catch	tactile	NA	NA	FALSE	FALSE	FALSE	FALSE	FALSE	0
p10	2015	06	17	11	20	f	21	r	201.340308071	2	143	0.923040793976	0.825038800045	tactile	right	left	tactile	NA	254.863236798	FALSE	FALSE	FALSE	FALSE	TRUE	0
p10	2015	06	17	11	20	f	21	r	201.340308071	2	144	1.766079708	1.40669500392	visual	right	right	visual	NA	343.923296779	FALSE	FALSE	FALSE	FALSE	FALSE	0
p10	2015	06	17	11	20	f	21	r	201.340308071	2	145	0.395009235945	0.772830719409	tactile	right	left	visual	NA	267.879877239	FALSE	FALSE	FALSE	FALSE	FALSE	0
p10	2015	06	17	11	20	f	21	r	201.340308071	2	146	0.38596957596	1.45512877651	tactile	right	left	visual	NA	405.483105918	FALSE	FALSE	FALSE	FALSE	FALSE	0
p10	2015	06	17	11	20	f	21	r	201.340308071	2	147	1.1008577731	1.48542760429	visual	left	right	visual	NA	277.65815123	FALSE	FALSE	FALSE	FALSE	TRUE	0
p10	2015	06	17	11	20	f	21	r	201.340308071	2	148	0.89817058295	0.536382979357	visual	right	right	visual	NA	201.738857199	FALSE	FALSE	FALSE	FALSE	FALSE	0
p10	2015	06	17	11	20	f	21	r	201.340308071	2	149	1.10071530007	0.988598719791	visual	right	left	visual	NA	189.410333987	FALSE	FALSE	FALSE	FALSE	TRUE	0
p10	2015	06	17	11	20	f	21	r	201.340308071	2	150	0.403291958151	0.531675878507	visual	left	right	visual	NA	213.47972611	FALSE	FALSE	FALSE	FALSE	TRUE	0
p10	2015	06	17	11	20	f	21	r	201.340308071	2	151	0.408126404043	0.590132099737	tactile	left	left	tactile	NA	222.912804689	FALSE	FALSE	FALSE	FALSE	TRUE	0
p10	2015	06	17	11	20	f	21	r	201.340308071	2	152	0.409197884146	1.48805451499	visual	left	right	tactile	NA	197.401525453	FALSE	FALSE	FALSE	FALSE	TRUE	0
p10	2015	06	17	11	20	f	21	r	201.340308071	2	153	0.402156203054	1.27232849489	tactile	left	right	visual	NA	306.912524626	FALSE	FALSE	FALSE	FALSE	TRUE	0
p10	2015	06	17	11	20	f	21	r	201.340308071	2	154	0.408990559867	0.953350093032	tactile	right	left	tactile	NA	195.588191738	FALSE	FALSE	FALSE	FALSE	FALSE	0
p10	2015	06	17	11	20	f	21	r	201.340308071	2	155	2.04538070783	0.846467414753	tactile	left	right	tactile	NA	85.5884349439	FALSE	FALSE	FALSE	FALSE	FALSE	0
p10	2015	06	17	11	20	f	21	r	201.340308071	2	156	1.37384073692	0.922348029876	tactile	left	left	visual	NA	351.745309774	FALSE	FALSE	FALSE	FALSE	FALSE	0
p10	2015	06	17	11	20	f	21	r	201.340308071	2	157	0.399515380152	1.40836592662	visual	left	left	tactile	NA	155.068449909	FALSE	FALSE	FALSE	FALSE	FALSE	0
p10	2015	06	17	11	20	f	21	r	201.340308071	2	158	0.40930594597	0.955711200845	visual	right	right	tactile	NA	218.122500693	FALSE	FALSE	FALSE	FALSE	TRUE	0
p10	2015	06	17	11	20	f	21	r	201.340308071	2	159	1.08264723606	1.12472316996	tactile	right	right	tactile	NA	52.5850465056	FALSE	FALSE	FALSE	FALSE	FALSE	0
p10	2015	06	17	11	20	f	21	r	201.340308071	2	160	0.39899712312	0.794438732403	tactile	right	left	tactile	NA	209.980277345	FALSE	FALSE	FALSE	FALSE	FALSE	0
p10	2015	06	17	11	20	f	21	r	52.1727955521	3	1	3.13071835507	1.30073630529	tactile	left	catch	tactile	NA	NA	FALSE	FALSE	FALSE	FALSE	FALSE	0
p10	2015	06	17	11	20	f	21	r	52.1727955521	3	2	1.78861039504	0.648872615797	tactile	left	right	tactile	NA	295.686358819	FALSE	FALSE	FALSE	FALSE	FALSE	0
p10	2015	06	17	11	20	f	21	r	52.1727955521	3	3	0.445925384061	0.777041184064	visual	left	right	tactile	NA	203.470070614	FALSE	FALSE	FALSE	FALSE	TRUE	0
p10	2015	06	17	11	20	f	21	r	52.1727955521	3	4	0.398198476061	1.49807365361	tactile	right	left	visual	NA	264.958675019	FALSE	FALSE	FALSE	FALSE	FALSE	0
p10	2015	06	17	11	20	f	21	r	52.1727955521	3	5	0.556334956083	1.02189043156	visual	left	right	visual	NA	220.571351936	FALSE	FALSE	FALSE	FALSE	FALSE	0
p10	2015	06	17	11	20	f	21	r	52.1727955521	3	6	0.404877649853	0.892786573921	visual	right	left	visual	NA	199.026879855	FALSE	FALSE	FALSE	FALSE	FALSE	0
p10	2015	06	17	11	20	f	21	r	52.1727955521	3	7	0.401743666967	0.564809565067	visual	right	left	visual	NA	226.026498713	FALSE	FALSE	FALSE	FALSE	FALSE	0
p10	2015	06	17	11	20	f	21	r	52.1727955521	3	8	0.402879649075	0.873822212225	visual	right	right	tactile	NA	199.720927281	FALSE	FALSE	FALSE	FALSE	FALSE	0
p10	2015	06	17	11	20	f	21	r	52.1727955521	3	9	1.26837656996	0.50965851492	visual	right	catch	tactile	NA	NA	FALSE	FALSE	FALSE	FALSE	FALSE	0
p10	2015	06	17	11	20	f	21	r	52.1727955521	3	10	1.79556887201	0.943329743783	tactile	left	left	tactile	NA	190.314825857	FALSE	FALSE	FALSE	FALSE	FALSE	0
p10	2015	06	17	11	20	f	21	r	52.1727955521	3	11	0.395586102037	0.783180764364	tactile	right	left	tactile	NA	162.22575726	FALSE	FALSE	FALSE	FALSE	TRUE	0
p10	2015	06	17	11	20	f	21	r	52.1727955521	3	12	1.38105329801	0.625128324149	visual	left	right	tactile	NA	169.971375261	FALSE	FALSE	FALSE	FALSE	FALSE	0
p10	2015	06	17	11	20	f	21	r	52.1727955521	3	13	0.407359417994	1.06299469155	tactile	right	right	visual	NA	304.674150189	FALSE	FALSE	FALSE	FALSE	FALSE	0
p10	2015	06	17	11	20	f	21	r	52.1727955521	3	14	0.402591746999	1.46361243063	visual	right	left	tactile	NA	139.120038832	FALSE	FALSE	FALSE	FALSE	FALSE	0
p10	2015	06	17	11	20	f	21	r	52.1727955521	3	15	0.405640366022	0.848808775181	tactile	left	left	visual	NA	255.362074589	FALSE	FALSE	FALSE	FALSE	FALSE	0
p10	2015	06	17	11	20	f	21	r	52.1727955521	3	16	0.397626341088	0.665324625363	tactile	left	left	tactile	NA	178.891001502	FALSE	FALSE	FALSE	FALSE	FALSE	0
p10	2015	06	17	11	20	f	21	r	52.1727955521	3	17	0.525660344865	0.722892458422	tactile	right	left	tactile	NA	243.414052296	FALSE	FALSE	FALSE	FALSE	FALSE	0
p10	2015	06	17	11	20	f	21	r	52.1727955521	3	18	0.40001102793	0.56144158298	visual	left	left	tactile	NA	220.75500153	FALSE	FALSE	FALSE	FALSE	FALSE	0
p10	2015	06	17	11	20	f	21	r	52.1727955521	3	19	0.402513829991	0.978576485672	tactile	right	right	tactile	NA	250.629971735	FALSE	FALSE	FALSE	FALSE	FALSE	0
p10	2015	06	17	11	20	f	21	r	52.1727955521	3	20	1.76303750998	0.828217572521	tactile	left	right	tactile	NA	214.440500131	FALSE	FALSE	FALSE	FALSE	FALSE	0
p10	2015	06	17	11	20	f	21	r	52.1727955521	3	21	0.393453380093	0.585556757789	visual	right	right	visual	NA	269.107947825	FALSE	FALSE	FALSE	FALSE	FALSE	0
p10	2015	06	17	11	20	f	21	r	52.1727955521	3	22	0.394839626038	1.26424838905	tactile	right	left	visual	NA	218.08947064	FALSE	FALSE	FALSE	FALSE	TRUE	0
p10	2015	06	17	11	20	f	21	r	52.1727955521	3	23	0.404816003051	1.43468429864	visual	right	right	tactile	NA	226.447389927	FALSE	FALSE	FALSE	FALSE	TRUE	0
p10	2015	06	17	11	20	f	21	r	52.1727955521	3	24	0.395996585954	0.790726663205	tactile	right	right	visual	NA	262.971528107	FALSE	FALSE	FALSE	FALSE	FALSE	0
p10	2015	06	17	11	20	f	21	r	52.1727955521	3	25	1.09086497501	0.874923216252	visual	right	left	tactile	NA	210.771384416	FALSE	FALSE	FALSE	FALSE	TRUE	0
p10	2015	06	17	11	20	f	21	r	52.1727955521	3	26	0.402048093965	1.48929276209	visual	left	catch	visual	NA	NA	FALSE	FALSE	FALSE	FALSE	FALSE	0
p10	2015	06	17	11	20	f	21	r	52.1727955521	3	27	0.492215391947	0.599196732267	tactile	right	left	tactile	NA	228.115766309	FALSE	FALSE	FALSE	FALSE	FALSE	0
p10	2015	06	17	11	20	f	21	r	52.1727955521	3	28	0.393348707119	1.17971800042	visual	left	left	tactile	NA	220.959728118	FALSE	FALSE	FALSE	FALSE	FALSE	0
p10	2015	06	17	11	20	f	21	r	52.1727955521	3	29	1.21085507912	1.45156069833	visual	left	right	visual	NA	330.42460843	FALSE	FALSE	FALSE	FALSE	FALSE	0
p10	2015	06	17	11	20	f	21	r	52.1727955521	3	30	0.394214895088	1.09738183033	tactile	right	left	visual	NA	161.18023335	FALSE	FALSE	FALSE	FALSE	FALSE	0
p10	2015	06	17	11	20	f	21	r	52.1727955521	3	31	0.403096389957	0.768175688797	tactile	right	left	visual	NA	304.918562761	FALSE	FALSE	FALSE	FALSE	FALSE	0
p10	2015	06	17	11	20	f	21	r	52.1727955521	3	32	0.439681431046	1.39964939124	tactile	left	right	visual	NA	268.608436454	FALSE	FALSE	FALSE	FALSE	FALSE	0
p10	2015	06	17	11	20	f	21	r	52.1727955521	3	33	0.403343530139	0.758989977849	tactile	right	left	visual	NA	267.305973684	FALSE	FALSE	FALSE	FALSE	FALSE	0
p10	2015	06	17	11	20	f	21	r	52.1727955521	3	34	0.39659855701	0.993007586178	visual	right	right	tactile	NA	268.306046491	FALSE	FALSE	FALSE	FALSE	FALSE	0
p10	2015	06	17	11	20	f	21	r	52.1727955521	3	35	0.396385362139	0.996864562548	visual	left	right	tactile	NA	283.004479017	FALSE	FALSE	FALSE	FALSE	FALSE	0
p10	2015	06	17	11	20	f	21	r	52.1727955521	3	36	0.398036044091	0.551883655699	tactile	right	left	visual	NA	268.08993821	FALSE	FALSE	FALSE	FALSE	FALSE	0
p10	2015	06	17	11	20	f	21	r	52.1727955521	3	37	73.6160967019	0.593099066748	visual	left	right	tactile	NA	413.762526819	FALSE	FALSE	FALSE	FALSE	TRUE	0
p10	2015	06	17	11	20	f	21	r	52.1727955521	3	38	2.27845298406	0.599132430839	visual	right	right	visual	NA	180.570903001	FALSE	FALSE	FALSE	FALSE	FALSE	0
p10	2015	06	17	11	20	f	21	r	52.1727955521	3	39	0.400237901136	0.707397103572	visual	right	right	visual	NA	181.663264288	FALSE	FALSE	FALSE	FALSE	TRUE	0
p10	2015	06	17	11	20	f	21	r	52.1727955521	3	40	0.403436208144	1.40652027755	visual	left	right	tactile	NA	274.848237168	FALSE	FALSE	FALSE	FALSE	FALSE	0
p10	2015	06	17	11	20	f	21	r	4.48783678794	3	41	1.38446878316	0.693144180172	visual	right	left	tactile	NA	204.957186477	FALSE	FALSE	FALSE	FALSE	FALSE	0
p10	2015	06	17	11	20	f	21	r	4.48783678794	3	42	0.405391318956	0.696951674737	tactile	right	left	tactile	NA	204.832661897	FALSE	FALSE	FALSE	FALSE	TRUE	0
p10	2015	06	17	11	20	f	21	r	4.48783678794	3	43	0.388225290924	1.2437588319	visual	right	right	tactile	NA	226.146234898	FALSE	FALSE	FALSE	FALSE	TRUE	0
p10	2015	06	17	11	20	f	21	r	4.48783678794	3	44	0.398927917937	0.952993824015	tactile	left	right	tactile	NA	165.120796766	FALSE	FALSE	FALSE	FALSE	FALSE	0
p10	2015	06	17	11	20	f	21	r	4.48783678794	3	45	2.45860116999	0.781911523125	visual	right	left	tactile	NA	39.7735105362	FALSE	FALSE	FALSE	FALSE	FALSE	0
p10	2015	06	17	11	20	f	21	r	4.48783678794	3	46	0.788237785921	0.893449533388	visual	right	left	visual	NA	243.604093092	FALSE	FALSE	FALSE	FALSE	FALSE	0
p10	2015	06	17	11	20	f	21	r	4.48783678794	3	47	0.39704847103	0.842824532374	visual	right	left	tactile	NA	89.2652801704	FALSE	FALSE	FALSE	FALSE	FALSE	0
p10	2015	06	17	11	20	f	21	r	4.48783678794	3	48	1.32960542408	1.19767756622	visual	left	left	visual	NA	322.547991527	FALSE	FALSE	FALSE	FALSE	FALSE	0
p10	2015	06	17	11	20	f	21	r	4.48783678794	3	49	0.414823181927	0.763541188822	visual	right	left	tactile	NA	192.569309613	FALSE	FALSE	FALSE	FALSE	FALSE	0
p10	2015	06	17	11	20	f	21	r	4.48783678794	3	50	0.404662029818	1.2077442531	visual	left	catch	visual	NA	154.188969638	FALSE	FALSE	FALSE	FALSE	FALSE	0
p10	2015	06	17	11	20	f	21	r	4.48783678794	3	51	0.474870251026	1.20639980255	visual	left	left	visual	NA	151.559120044	FALSE	FALSE	FALSE	FALSE	FALSE	0
p10	2015	06	17	11	20	f	21	r	4.48783678794	3	52	0.41177707212	0.872510282158	tactile	right	left	tactile	NA	232.908799546	FALSE	FALSE	FALSE	FALSE	TRUE	0
p10	2015	06	17	11	20	f	21	r	4.48783678794	3	53	0.397563267965	0.732242271951	tactile	left	right	visual	NA	299.665678758	FALSE	FALSE	FALSE	FALSE	TRUE	0
p10	2015	06	17	11	20	f	21	r	4.48783678794	3	54	0.395845463034	1.32214743725	visual	right	catch	tactile	NA	132.169798482	FALSE	FALSE	FALSE	FALSE	TRUE	0
p10	2015	06	17	11	20	f	21	r	4.48783678794	3	55	2.21215665899	1.00862984806	tactile	left	left	visual	NA	191.587908426	FALSE	FALSE	FALSE	FALSE	FALSE	0
p10	2015	06	17	11	20	f	21	r	4.48783678794	3	56	3.74073537183	1.16390759872	visual	left	left	tactile	NA	251.442192821	FALSE	FALSE	FALSE	FALSE	FALSE	0
p10	2015	06	17	11	20	f	21	r	4.48783678794	3	57	0.396351534873	0.528322868113	tactile	right	right	tactile	NA	191.307571484	FALSE	FALSE	FALSE	FALSE	TRUE	0
p10	2015	06	17	11	20	f	21	r	4.48783678794	3	58	0.403605307918	0.684554031945	visual	right	right	tactile	NA	104.802448535	FALSE	FALSE	FALSE	FALSE	FALSE	0
p10	2015	06	17	11	20	f	21	r	4.48783678794	3	59	0.399365429999	0.590888583076	tactile	right	right	tactile	NA	208.236606559	FALSE	FALSE	FALSE	FALSE	FALSE	0
p10	2015	06	17	11	20	f	21	r	4.48783678794	3	60	0.400427093962	1.09873780004	tactile	right	right	visual	NA	109.567493666	FALSE	FALSE	FALSE	FALSE	TRUE	0
p10	2015	06	17	11	20	f	21	r	4.48783678794	3	61	2.42745535821	0.604724253972	tactile	left	left	visual	NA	451.81671367	FALSE	FALSE	FALSE	FALSE	TRUE	0
p10	2015	06	17	11	20	f	21	r	4.48783678794	3	62	0.399125176016	0.548293199856	visual	left	right	visual	NA	261.378628667	FALSE	FALSE	FALSE	FALSE	FALSE	0
p10	2015	06	17	11	20	f	21	r	4.48783678794	3	63	1.51543545886	0.721469324312	tactile	right	right	tactile	NA	341.826274293	FALSE	FALSE	FALSE	FALSE	TRUE	0
p10	2015	06	17	11	20	f	21	r	4.48783678794	3	64	27.5027335901	0.885179810957	tactile	right	left	visual	NA	230.360489571	FALSE	FALSE	FALSE	FALSE	FALSE	0
p10	2015	06	17	11	20	f	21	r	4.48783678794	3	65	0.467774230056	0.547605914189	tactile	right	catch	visual	NA	NA	FALSE	FALSE	FALSE	FALSE	FALSE	0
p10	2015	06	17	11	20	f	21	r	4.48783678794	3	66	0.761332161957	1.0083350048	tactile	left	right	visual	NA	254.714553943	FALSE	FALSE	FALSE	FALSE	TRUE	0
p10	2015	06	17	11	20	f	21	r	4.48783678794	3	67	0.397036009934	1.41311316591	visual	right	right	visual	NA	228.39450161	FALSE	FALSE	FALSE	FALSE	FALSE	0
p10	2015	06	17	11	20	f	21	r	4.48783678794	3	68	0.398504112847	0.674951565588	visual	left	left	tactile	NA	256.508209975	FALSE	FALSE	FALSE	FALSE	TRUE	0
p10	2015	06	17	11	20	f	21	r	4.48783678794	3	69	1.24741571699	0.590621801773	tactile	left	right	tactile	NA	117.391347885	FALSE	FALSE	FALSE	FALSE	FALSE	0
p10	2015	06	17	11	20	f	21	r	4.48783678794	3	70	0.402901629917	1.27940188351	tactile	left	catch	tactile	NA	68.0443630554	FALSE	FALSE	FALSE	FALSE	FALSE	0
p10	2015	06	17	11	20	f	21	r	4.48783678794	3	71	0.627347404137	1.1115931802	tactile	right	left	tactile	NA	183.224085718	FALSE	FALSE	FALSE	FALSE	FALSE	0
p10	2015	06	17	11	20	f	21	r	4.48783678794	3	72	0.404860485112	0.9929061958	visual	left	catch	tactile	NA	203.13094696	FALSE	FALSE	FALSE	FALSE	FALSE	0
p10	2015	06	17	11	20	f	21	r	4.48783678794	3	73	0.50983865303	0.562847572269	tactile	left	right	visual	NA	294.896009145	FALSE	FALSE	FALSE	FALSE	FALSE	0
p10	2015	06	17	11	20	f	21	r	4.48783678794	3	74	0.398216146044	1.29086205705	tactile	right	left	tactile	NA	105.853800662	FALSE	FALSE	FALSE	FALSE	TRUE	0
p10	2015	06	17	11	20	f	21	r	4.48783678794	3	75	0.403263224987	0.944124177507	visual	left	left	visual	NA	277.592575178	FALSE	FALSE	FALSE	FALSE	FALSE	0
p10	2015	06	17	11	20	f	21	r	4.48783678794	3	76	0.40126091009	0.871275420827	tactile	right	right	visual	NA	368.270886829	FALSE	FALSE	FALSE	FALSE	FALSE	0
p10	2015	06	17	11	20	f	21	r	4.48783678794	3	77	0.403208148899	1.43549833471	tactile	right	left	tactile	NA	244.41077793	FALSE	FALSE	FALSE	FALSE	TRUE	0
p10	2015	06	17	11	20	f	21	r	4.48783678794	3	78	0.402252312051	0.7651047084	visual	right	left	visual	NA	245.305007091	FALSE	FALSE	FALSE	FALSE	TRUE	0
p10	2015	06	17	11	20	f	21	r	4.48783678794	3	79	0.401414816966	1.33844911272	tactile	right	left	visual	NA	113.363048993	FALSE	FALSE	FALSE	FALSE	FALSE	0
p10	2015	06	17	11	20	f	21	r	4.48783678794	3	80	2.03804316302	1.03665408965	visual	left	catch	tactile	NA	267.05185906	FALSE	FALSE	FALSE	FALSE	TRUE	0
p10	2015	06	17	11	20	f	21	r	9.16233430291	3	81	1.41547394404	0.967762453509	tactile	left	left	tactile	NA	361.459543929	FALSE	FALSE	FALSE	FALSE	FALSE	0
p10	2015	06	17	11	20	f	21	r	9.16233430291	3	82	1.10399045399	1.13698974059	tactile	right	right	visual	NA	259.609970031	FALSE	FALSE	FALSE	FALSE	FALSE	0
p10	2015	06	17	11	20	f	21	r	9.16233430291	3	83	0.483817382017	0.870008803539	visual	left	left	visual	NA	267.391749192	FALSE	FALSE	FALSE	FALSE	FALSE	0
p10	2015	06	17	11	20	f	21	r	9.16233430291	3	84	0.395074055996	1.13567784279	visual	right	left	visual	NA	278.116710717	FALSE	FALSE	FALSE	FALSE	FALSE	0
p10	2015	06	17	11	20	f	21	r	9.16233430291	3	85	0.411217866931	1.33738332752	visual	right	left	visual	NA	233.240001136	FALSE	FALSE	FALSE	FALSE	TRUE	0
p10	2015	06	17	11	20	f	21	r	9.16233430291	3	86	1.46555827209	0.646001288979	visual	left	left	visual	NA	258.020649664	FALSE	FALSE	FALSE	FALSE	FALSE	0
p10	2015	06	17	11	20	f	21	r	9.16233430291	3	87	0.391653170111	1.48638678526	tactile	left	left	tactile	NA	139.21150635	FALSE	FALSE	FALSE	FALSE	TRUE	0
p10	2015	06	17	11	20	f	21	r	9.16233430291	3	88	0.394194096792	1.02151663841	visual	left	left	tactile	NA	187.967849197	FALSE	FALSE	FALSE	FALSE	FALSE	0
p10	2015	06	17	11	20	f	21	r	9.16233430291	3	89	0.395927775884	1.32043447046	tactile	left	left	tactile	NA	194.265356287	FALSE	FALSE	FALSE	FALSE	FALSE	0
p10	2015	06	17	11	20	f	21	r	9.16233430291	3	90	0.39318268979	0.640761362484	visual	left	right	tactile	NA	226.954105077	FALSE	FALSE	FALSE	FALSE	FALSE	0
p10	2015	06	17	11	20	f	21	r	9.16233430291	3	91	0.392589027062	1.09108586863	tactile	left	right	visual	NA	24.3589628953	FALSE	FALSE	FALSE	FALSE	FALSE	0
p10	2015	06	17	11	20	f	21	r	9.16233430291	3	92	0.394306503003	0.604988082754	tactile	left	right	tactile	NA	283.929381752	FALSE	FALSE	FALSE	FALSE	FALSE	0
p10	2015	06	17	11	20	f	21	r	9.16233430291	3	93	1.6293783579	0.929876378132	tactile	left	right	visual	NA	248.569896678	FALSE	FALSE	FALSE	FALSE	FALSE	0
p10	2015	06	17	11	20	f	21	r	9.16233430291	3	94	0.396245944081	0.541398541504	visual	right	right	visual	NA	158.020595089	FALSE	FALSE	FALSE	FALSE	FALSE	0
p10	2015	06	17	11	20	f	21	r	9.16233430291	3	95	2.943706705	1.25032309076	tactile	right	catch	tactile	NA	10.7207647525	FALSE	FALSE	FALSE	FALSE	FALSE	0
p10	2015	06	17	11	20	f	21	r	9.16233430291	3	96	1.20113151707	0.534478274662	tactile	left	left	visual	NA	331.504428992	FALSE	FALSE	FALSE	FALSE	FALSE	0
p10	2015	06	17	11	20	f	21	r	9.16233430291	3	97	1.85718269018	1.23241643541	visual	right	left	visual	NA	193.247833056	FALSE	FALSE	FALSE	FALSE	FALSE	0
p10	2015	06	17	11	20	f	21	r	9.16233430291	3	98	0.614484873833	0.777209311578	tactile	right	right	visual	NA	329.25444725	FALSE	FALSE	FALSE	FALSE	FALSE	0
p10	2015	06	17	11	20	f	21	r	9.16233430291	3	99	0.396199268056	0.819413736157	visual	right	left	tactile	NA	53.6386044696	FALSE	FALSE	FALSE	FALSE	FALSE	0
p10	2015	06	17	11	20	f	21	r	9.16233430291	3	100	0.69621891086	1.17163939082	tactile	left	right	tactile	NA	356.212291867	FALSE	FALSE	FALSE	FALSE	TRUE	0
p10	2015	06	17	11	20	f	21	r	9.16233430291	3	101	1.60406371416	0.895261825363	tactile	left	right	visual	NA	119.053141447	FALSE	FALSE	FALSE	FALSE	FALSE	0
p10	2015	06	17	11	20	f	21	r	9.16233430291	3	102	0.503519964172	0.669524309308	visual	left	right	visual	NA	143.334637396	FALSE	FALSE	FALSE	FALSE	TRUE	0
p10	2015	06	17	11	20	f	21	r	9.16233430291	3	103	0.400490622036	0.831080476265	visual	right	left	visual	NA	43.4562882874	FALSE	FALSE	FALSE	FALSE	FALSE	0
p10	2015	06	17	11	20	f	21	r	9.16233430291	3	104	1.67427593307	0.882648002708	visual	left	right	tactile	NA	221.530766692	FALSE	FALSE	FALSE	FALSE	FALSE	0
p10	2015	06	17	11	20	f	21	r	9.16233430291	3	105	0.3951045461	0.740913963963	visual	right	right	visual	NA	332.5269036	FALSE	FALSE	FALSE	FALSE	FALSE	0
p10	2015	06	17	11	20	f	21	r	9.16233430291	3	106	3.12369056302	0.749229699019	tactile	right	right	tactile	NA	287.811032729	FALSE	FALSE	FALSE	FALSE	FALSE	0
p10	2015	06	17	11	20	f	21	r	9.16233430291	3	107	0.39354972681	1.15906211078	tactile	left	left	visual	NA	276.528345887	FALSE	FALSE	FALSE	FALSE	FALSE	0
p10	2015	06	17	11	20	f	21	r	9.16233430291	3	108	14.1314485641	1.48574432954	visual	left	right	tactile	voice	NA	TRUE	FALSE	FALSE	FALSE	FALSE	0
p10	2015	06	17	11	20	f	21	r	9.16233430291	3	109	1.93866160116	1.26277734095	tactile	right	right	visual	NA	475.082718534	FALSE	FALSE	FALSE	FALSE	TRUE	0
p10	2015	06	17	11	20	f	21	r	9.16233430291	3	110	1.61465749796	1.41429180332	visual	left	left	visual	NA	337.053277297	FALSE	FALSE	FALSE	FALSE	TRUE	0
p10	2015	06	17	11	20	f	21	r	9.16233430291	3	111	0.748360130005	0.652376653725	tactile	left	right	visual	NA	272.037793184	FALSE	FALSE	FALSE	FALSE	FALSE	0
p10	2015	06	17	11	20	f	21	r	9.16233430291	3	112	0.408514343901	1.3892101393	visual	left	left	tactile	voice	NA	TRUE	FALSE	FALSE	FALSE	FALSE	0
p10	2015	06	17	11	20	f	21	r	9.16233430291	3	113	0.628716843203	0.611269760764	visual	right	right	tactile	NA	257.70371384	FALSE	FALSE	FALSE	FALSE	TRUE	0
p10	2015	06	17	11	20	f	21	r	9.16233430291	3	114	0.401633289177	0.829591595611	tactile	right	right	tactile	NA	219.275342999	FALSE	FALSE	FALSE	FALSE	FALSE	0
p10	2015	06	17	11	20	f	21	r	9.16233430291	3	115	0.396833088947	1.15191188059	visual	left	right	visual	NA	238.931270083	FALSE	FALSE	FALSE	FALSE	TRUE	0
p10	2015	06	17	11	20	f	21	r	9.16233430291	3	116	1.24228886608	0.77887975684	tactile	left	catch	visual	NA	114.01847261	FALSE	FALSE	FALSE	FALSE	FALSE	0
p10	2015	06	17	11	20	f	21	r	9.16233430291	3	117	0.693784599192	0.744387279263	tactile	left	left	tactile	NA	247.374626342	FALSE	FALSE	FALSE	FALSE	FALSE	0
p10	2015	06	17	11	20	f	21	r	9.16233430291	3	118	0.473084647907	1.05940873462	visual	left	left	tactile	NA	212.597356876	FALSE	FALSE	FALSE	FALSE	FALSE	0
p10	2015	06	17	11	20	f	21	r	9.16233430291	3	119	0.408692861907	1.3455506421	tactile	left	right	visual	NA	256.25748653	FALSE	FALSE	FALSE	FALSE	FALSE	0
p10	2015	06	17	11	20	f	21	r	9.16233430291	3	120	0.403198671062	1.16685939522	tactile	left	left	tactile	NA	209.671350662	FALSE	FALSE	FALSE	FALSE	FALSE	0
p10	2015	06	17	11	20	f	21	r	7.37877171906	3	121	2.12283501099	1.45490203395	visual	right	catch	visual	NA	208.210289478	FALSE	FALSE	FALSE	FALSE	FALSE	0
p10	2015	06	17	11	20	f	21	r	7.37877171906	3	122	0.485303100897	1.03733982865	tactile	right	right	tactile	NA	284.559823107	FALSE	FALSE	FALSE	FALSE	TRUE	0
p10	2015	06	17	11	20	f	21	r	7.37877171906	3	123	0.403074223083	0.600627627099	visual	left	left	visual	NA	274.423090508	FALSE	FALSE	FALSE	FALSE	FALSE	0
p10	2015	06	17	11	20	f	21	r	7.37877171906	3	124	1.84884526604	1.11387078732	tactile	left	left	tactile	NA	224.180014106	FALSE	FALSE	FALSE	FALSE	FALSE	0
p10	2015	06	17	11	20	f	21	r	7.37877171906	3	125	1.5398598481	1.01836531956	visual	right	right	tactile	NA	13.1644471548	FALSE	FALSE	FALSE	FALSE	FALSE	0
p10	2015	06	17	11	20	f	21	r	7.37877171906	3	126	0.801982541103	1.45440073421	visual	right	catch	visual	NA	177.091442514	FALSE	FALSE	FALSE	FALSE	FALSE	0
p10	2015	06	17	11	20	f	21	r	7.37877171906	3	127	7.53915260616	0.54921238638	visual	right	right	visual	escape	48.7565114163	FALSE	TRUE	FALSE	FALSE	TRUE	0
p10	2015	06	17	11	20	f	21	r	7.37877171906	3	128	30.841157252	0.66134579283	tactile	right	catch	visual	NA	NA	FALSE	FALSE	FALSE	FALSE	TRUE	0
p10	2015	06	17	11	20	f	21	r	7.37877171906	3	129	1.65247219009	0.533831399499	tactile	left	right	tactile	NA	163.745532278	FALSE	FALSE	FALSE	FALSE	FALSE	0
p10	2015	06	17	11	20	f	21	r	7.37877171906	3	130	0.404057722073	1.09481713175	visual	left	right	visual	NA	161.598559702	FALSE	FALSE	FALSE	FALSE	TRUE	0
p10	2015	06	17	11	20	f	21	r	7.37877171906	3	131	0.394561009947	1.14550807644	visual	right	right	tactile	NA	83.969296189	FALSE	FALSE	FALSE	FALSE	TRUE	0
p10	2015	06	17	11	20	f	21	r	7.37877171906	3	132	0.401046111016	0.769949756231	visual	right	right	visual	NA	154.632816324	FALSE	FALSE	FALSE	FALSE	FALSE	0
p10	2015	06	17	11	20	f	21	r	7.37877171906	3	133	0.404393468983	1.31967617832	visual	left	right	visual	NA	96.0418554023	FALSE	FALSE	FALSE	FALSE	TRUE	0
p10	2015	06	17	11	20	f	21	r	7.37877171906	3	134	0.39861026709	1.36757678389	visual	left	left	tactile	NA	66.9889857527	FALSE	FALSE	FALSE	FALSE	FALSE	0
p10	2015	06	17	11	20	f	21	r	7.37877171906	3	135	0.403121843003	1.29558164612	visual	right	left	tactile	NA	261.154459557	FALSE	FALSE	FALSE	FALSE	TRUE	0
p10	2015	06	17	11	20	f	21	r	7.37877171906	3	136	0.404305978213	1.16833358369	tactile	right	right	tactile	NA	206.509315874	FALSE	FALSE	FALSE	FALSE	FALSE	0
p10	2015	06	17	11	20	f	21	r	7.37877171906	3	137	0.401883173967	1.24085625368	tactile	right	right	tactile	NA	138.462156756	FALSE	FALSE	FALSE	FALSE	TRUE	0
p10	2015	06	17	11	20	f	21	r	7.37877171906	3	138	4.00449630502	1.3510378181	visual	right	right	tactile	NA	125.04745461	FALSE	FALSE	FALSE	FALSE	TRUE	0
p10	2015	06	17	11	20	f	21	r	7.37877171906	3	139	0.396053411998	0.7842006954	visual	left	left	visual	NA	238.584082341	FALSE	FALSE	FALSE	FALSE	TRUE	0
p10	2015	06	17	11	20	f	21	r	7.37877171906	3	140	1.72912130109	1.18730880686	tactile	left	left	tactile	NA	225.623524515	FALSE	FALSE	FALSE	FALSE	FALSE	0
p10	2015	06	17	11	20	f	21	r	7.37877171906	3	141	0.400849524885	0.632735672238	tactile	right	catch	tactile	NA	46.7554014176	FALSE	FALSE	FALSE	FALSE	FALSE	0
p10	2015	06	17	11	20	f	21	r	7.37877171906	3	142	0.457966550021	0.941317127754	visual	left	right	visual	NA	115.418338683	FALSE	FALSE	FALSE	FALSE	TRUE	0
p10	2015	06	17	11	20	f	21	r	7.37877171906	3	143	0.399969226914	0.708628803538	tactile	right	right	visual	NA	82.3976991232	FALSE	FALSE	FALSE	FALSE	FALSE	0
p10	2015	06	17	11	20	f	21	r	7.37877171906	3	144	0.398986508837	1.11530661554	tactile	left	left	visual	NA	99.6356201358	FALSE	FALSE	FALSE	FALSE	FALSE	0
p10	2015	06	17	11	20	f	21	r	7.37877171906	3	145	0.39542543795	0.772647286158	tactile	left	right	tactile	NA	212.155303452	FALSE	FALSE	FALSE	FALSE	FALSE	0
p10	2015	06	17	11	20	f	21	r	7.37877171906	3	146	1.32698198385	0.694643577726	tactile	right	left	visual	NA	134.715905879	FALSE	FALSE	FALSE	FALSE	TRUE	0
p10	2015	06	17	11	20	f	21	r	7.37877171906	3	147	0.40328189102	1.21856323048	visual	right	right	visual	NA	323.345464189	FALSE	FALSE	FALSE	FALSE	FALSE	0
p10	2015	06	17	11	20	f	21	r	7.37877171906	3	148	2.21946006408	0.601866014976	tactile	left	left	visual	NA	187.640331453	FALSE	FALSE	FALSE	FALSE	FALSE	0
p10	2015	06	17	11	20	f	21	r	7.37877171906	3	149	0.403727611061	0.841086739125	tactile	right	left	tactile	NA	190.578554291	FALSE	FALSE	FALSE	FALSE	FALSE	0
p10	2015	06	17	11	20	f	21	r	7.37877171906	3	150	0.398382367799	0.545650517468	visual	left	right	visual	NA	188.75345611	FALSE	FALSE	FALSE	FALSE	FALSE	0
p10	2015	06	17	11	20	f	21	r	7.37877171906	3	151	1.70110110403	1.23542621116	visual	left	right	tactile	NA	198.400891386	FALSE	FALSE	FALSE	FALSE	TRUE	0
p10	2015	06	17	11	20	f	21	r	7.37877171906	3	152	0.394308367977	0.649066170933	tactile	left	catch	visual	NA	132.177016698	FALSE	FALSE	FALSE	TRUE	TRUE	0
p10	2015	06	17	11	20	f	21	r	7.37877171906	3	153	1.75560522894	0.721996121894	tactile	left	right	tactile	NA	151.944215875	FALSE	FALSE	FALSE	FALSE	FALSE	0
p10	2015	06	17	11	20	f	21	r	7.37877171906	3	154	0.396289316937	1.18568527238	visual	left	left	tactile	NA	67.8074203897	FALSE	FALSE	FALSE	FALSE	TRUE	0
p10	2015	06	17	11	20	f	21	r	7.37877171906	3	155	0.39785614307	0.5970285279	visual	left	left	visual	NA	99.4095457718	FALSE	FALSE	FALSE	FALSE	FALSE	0
p10	2015	06	17	11	20	f	21	r	7.37877171906	3	156	0.39915715903	1.11215189429	tactile	left	left	visual	voice	NA	TRUE	FALSE	FALSE	FALSE	FALSE	0
p10	2015	06	17	11	20	f	21	r	7.37877171906	3	157	1.340561877	1.00614333182	tactile	right	right	visual	NA	287.074402906	FALSE	FALSE	FALSE	FALSE	TRUE	0
p10	2015	06	17	11	20	f	21	r	7.37877171906	3	158	0.39381623501	1.03973631659	visual	right	left	tactile	NA	178.590309108	FALSE	FALSE	FALSE	FALSE	FALSE	0
p10	2015	06	17	11	20	f	21	r	7.37877171906	3	159	2.84429169004	1.2797880702	tactile	left	left	visual	NA	688.08705546	FALSE	FALSE	FALSE	FALSE	FALSE	0
p10	2015	06	17	11	20	f	21	r	7.37877171906	3	160	0.394311888842	1.41213035917	visual	right	left	visual	NA	156.738004647	FALSE	FALSE	FALSE	FALSE	FALSE	0
p10	2015	06	17	11	20	f	21	r	18.7883514578	4	1	1.07846805779	0.85833317216	visual	left	left	tactile	NA	154.879527632	FALSE	FALSE	FALSE	FALSE	FALSE	0
p10	2015	06	17	11	20	f	21	r	18.7883514578	4	2	1.2791833661	0.727428956717	tactile	right	catch	visual	voice	NA	TRUE	FALSE	FALSE	FALSE	FALSE	0
p10	2015	06	17	11	20	f	21	r	18.7883514578	4	3	0.663297845982	1.1128741454	tactile	left	right	visual	NA	460.505615221	FALSE	FALSE	FALSE	FALSE	FALSE	0
p10	2015	06	17	11	20	f	21	r	18.7883514578	4	4	0.401141325012	1.45791497623	visual	left	catch	tactile	NA	122.322095558	FALSE	FALSE	FALSE	FALSE	FALSE	0
p10	2015	06	17	11	20	f	21	r	18.7883514578	4	5	0.459237687988	0.820259182831	tactile	right	right	visual	NA	333.031244576	FALSE	FALSE	FALSE	FALSE	TRUE	0
p10	2015	06	17	11	20	f	21	r	18.7883514578	4	6	0.394671664108	0.61840514367	visual	right	catch	visual	NA	380.398765905	FALSE	FALSE	FALSE	FALSE	FALSE	0
p10	2015	06	17	11	20	f	21	r	18.7883514578	4	7	3.25213441998	0.918319667497	visual	left	left	visual	NA	218.30073907	FALSE	FALSE	FALSE	FALSE	TRUE	0
p10	2015	06	17	11	20	f	21	r	18.7883514578	4	8	0.590784410015	1.14962828315	visual	right	right	tactile	NA	112.049481366	FALSE	FALSE	FALSE	FALSE	TRUE	0
p10	2015	06	17	11	20	f	21	r	18.7883514578	4	9	0.738171234028	1.2820362409	tactile	right	left	visual	NA	212.069567759	FALSE	FALSE	FALSE	FALSE	TRUE	0
p10	2015	06	17	11	20	f	21	r	18.7883514578	4	10	3.96751021896	1.38651930413	visual	right	right	tactile	NA	233.798235189	FALSE	FALSE	FALSE	FALSE	TRUE	0
p10	2015	06	17	11	20	f	21	r	18.7883514578	4	11	3.34818628198	1.40542244727	tactile	right	left	tactile	NA	18.4701103717	FALSE	FALSE	FALSE	FALSE	TRUE	0
p10	2015	06	17	11	20	f	21	r	18.7883514578	4	12	3.68992437096	0.876232889877	visual	left	left	tactile	NA	127.406321699	FALSE	FALSE	FALSE	FALSE	FALSE	0
p10	2015	06	17	11	20	f	21	r	18.7883514578	4	13	0.44930972904	1.40012354856	visual	right	left	tactile	NA	302.490776172	FALSE	FALSE	FALSE	FALSE	FALSE	0
p10	2015	06	17	11	20	f	21	r	18.7883514578	4	14	0.405679710908	1.18183191482	visual	right	right	visual	NA	261.311472626	FALSE	FALSE	FALSE	FALSE	FALSE	0
p10	2015	06	17	11	20	f	21	r	18.7883514578	4	15	0.408069015946	0.573967572687	visual	right	right	visual	NA	298.941472778	FALSE	FALSE	FALSE	FALSE	FALSE	0
p10	2015	06	17	11	20	f	21	r	18.7883514578	4	16	0.402912250021	0.789370342044	visual	left	left	visual	voice	NA	TRUE	FALSE	FALSE	FALSE	FALSE	0
p10	2015	06	17	11	20	f	21	r	18.7883514578	4	17	0.815949409967	0.772214143917	visual	left	right	visual	NA	352.542805718	FALSE	FALSE	FALSE	FALSE	FALSE	0
p10	2015	06	17	11	20	f	21	r	18.7883514578	4	18	0.407361349091	0.701635094452	tactile	left	right	visual	NA	220.579677261	FALSE	FALSE	FALSE	FALSE	FALSE	0
p10	2015	06	17	11	20	f	21	r	18.7883514578	4	19	0.400471305009	1.31785325549	tactile	right	right	visual	NA	507.942310302	FALSE	FALSE	FALSE	FALSE	FALSE	0
p10	2015	06	17	11	20	f	21	r	18.7883514578	4	20	0.395456395112	1.18068870942	tactile	left	right	visual	NA	260.855502216	FALSE	FALSE	FALSE	FALSE	FALSE	0
p10	2015	06	17	11	20	f	21	r	18.7883514578	4	21	0.394052196993	1.45124891982	visual	right	right	visual	NA	194.831038825	FALSE	FALSE	FALSE	FALSE	TRUE	0
p10	2015	06	17	11	20	f	21	r	18.7883514578	4	22	0.503244983964	0.534190005048	tactile	left	right	tactile	NA	243.797419593	FALSE	FALSE	FALSE	FALSE	TRUE	0
p10	2015	06	17	11	20	f	21	r	18.7883514578	4	23	0.565189681016	1.27316923921	tactile	right	right	tactile	NA	406.167270383	FALSE	FALSE	FALSE	FALSE	FALSE	0
p10	2015	06	17	11	20	f	21	r	18.7883514578	4	24	0.64542315295	1.1014010172	visual	left	catch	visual	NA	NA	FALSE	FALSE	FALSE	FALSE	FALSE	0
p10	2015	06	17	11	20	f	21	r	18.7883514578	4	25	0.600393906003	1.34391569556	visual	right	left	tactile	NA	275.595213054	FALSE	FALSE	FALSE	FALSE	FALSE	0
p10	2015	06	17	11	20	f	21	r	18.7883514578	4	26	0.423718479928	1.47975205258	visual	right	right	visual	NA	400.44008987	FALSE	FALSE	FALSE	FALSE	FALSE	0
p10	2015	06	17	11	20	f	21	r	18.7883514578	4	27	0.401944697835	0.978821128568	visual	left	left	tactile	NA	203.683028929	FALSE	FALSE	FALSE	FALSE	FALSE	0
p10	2015	06	17	11	20	f	21	r	18.7883514578	4	28	0.541087588994	1.08246770909	tactile	right	left	tactile	NA	191.294021439	FALSE	FALSE	FALSE	FALSE	FALSE	0
p10	2015	06	17	11	20	f	21	r	18.7883514578	4	29	0.562910859007	0.67720592736	tactile	right	left	visual	NA	153.162358096	FALSE	FALSE	FALSE	FALSE	FALSE	0
p10	2015	06	17	11	20	f	21	r	18.7883514578	4	30	0.580747121014	1.28245801583	tactile	right	left	visual	NA	268.610488856	FALSE	FALSE	FALSE	FALSE	FALSE	0
p10	2015	06	17	11	20	f	21	r	18.7883514578	4	31	0.435990768019	1.21683703527	visual	right	left	visual	NA	104.721104261	FALSE	FALSE	FALSE	FALSE	FALSE	0
p10	2015	06	17	11	20	f	21	r	18.7883514578	4	32	1.65499397297	0.781941127119	tactile	left	right	tactile	NA	129.224605625	FALSE	FALSE	FALSE	FALSE	FALSE	0
p10	2015	06	17	11	20	f	21	r	18.7883514578	4	33	1.0868639031	1.28105089313	tactile	right	right	tactile	NA	11.7316823453	FALSE	FALSE	FALSE	FALSE	TRUE	0
p10	2015	06	17	11	20	f	21	r	18.7883514578	4	34	1.42627554899	0.989522791888	visual	left	right	tactile	NA	171.611783793	FALSE	FALSE	FALSE	FALSE	FALSE	0
p10	2015	06	17	11	20	f	21	r	18.7883514578	4	35	0.403914476978	1.05578893006	tactile	left	right	tactile	NA	186.932401499	FALSE	FALSE	FALSE	FALSE	FALSE	0
p10	2015	06	17	11	20	f	21	r	18.7883514578	4	36	0.401760261972	0.589272508392	tactile	left	right	tactile	NA	200.905196136	FALSE	FALSE	FALSE	FALSE	FALSE	0
p10	2015	06	17	11	20	f	21	r	18.7883514578	4	37	1.31469208491	1.45981858922	tactile	left	left	tactile	NA	380.552706309	FALSE	FALSE	FALSE	FALSE	FALSE	0
p10	2015	06	17	11	20	f	21	r	18.7883514578	4	38	0.589343678905	0.841374961052	visual	left	left	visual	NA	150.680832565	FALSE	FALSE	FALSE	FALSE	FALSE	0
p10	2015	06	17	11	20	f	21	r	18.7883514578	4	39	0.40571737499	1.46758693417	visual	right	left	visual	NA	350.547574461	FALSE	FALSE	FALSE	FALSE	FALSE	0
p10	2015	06	17	11	20	f	21	r	18.7883514578	4	40	0.417134658899	0.793455128214	tactile	right	right	visual	NA	305.903861299	FALSE	FALSE	FALSE	FALSE	TRUE	0
p10	2015	06	17	11	20	f	21	r	6.74403878208	4	41	0.926951914094	0.586193161736	visual	right	left	visual	NA	173.152159899	FALSE	FALSE	FALSE	FALSE	FALSE	0
p10	2015	06	17	11	20	f	21	r	6.74403878208	4	42	0.394850605866	0.516317234359	tactile	left	right	tactile	NA	160.45730724	FALSE	FALSE	FALSE	FALSE	FALSE	0
p10	2015	06	17	11	20	f	21	r	6.74403878208	4	43	1.15003441088	1.38990755785	tactile	right	left	visual	NA	327.400847804	FALSE	FALSE	FALSE	FALSE	TRUE	0
p10	2015	06	17	11	20	f	21	r	6.74403878208	4	44	0.604525857139	1.16801802137	tactile	left	right	visual	NA	247.027369216	FALSE	FALSE	FALSE	FALSE	TRUE	0
p10	2015	06	17	11	20	f	21	r	6.74403878208	4	45	0.72014178196	0.939785227451	visual	right	right	tactile	NA	230.804328108	FALSE	FALSE	FALSE	FALSE	FALSE	0
p10	2015	06	17	11	20	f	21	r	6.74403878208	4	46	2.35581203783	0.850037844864	visual	left	left	tactile	NA	77.4709465913	FALSE	FALSE	FALSE	FALSE	TRUE	0
p10	2015	06	17	11	20	f	21	r	6.74403878208	4	47	0.708531403914	1.00991148241	visual	right	left	tactile	NA	218.309042975	FALSE	FALSE	FALSE	FALSE	FALSE	0
p10	2015	06	17	11	20	f	21	r	6.74403878208	4	48	0.394706408959	0.735284500636	visual	left	right	tactile	NA	230.945934076	FALSE	FALSE	FALSE	FALSE	FALSE	0
p10	2015	06	17	11	20	f	21	r	6.74403878208	4	49	0.3939990371	0.757528094146	tactile	right	left	tactile	NA	219.895465299	FALSE	FALSE	FALSE	FALSE	FALSE	0
p10	2015	06	17	11	20	f	21	r	6.74403878208	4	50	0.400169255212	0.975938246726	tactile	right	left	visual	NA	251.21776876	FALSE	FALSE	FALSE	FALSE	FALSE	0
p10	2015	06	17	11	20	f	21	r	6.74403878208	4	51	0.391148797935	0.90198408007	visual	right	right	tactile	NA	279.0992097	FALSE	FALSE	FALSE	FALSE	FALSE	0
p10	2015	06	17	11	20	f	21	r	6.74403878208	4	52	0.837396472925	1.21596726983	tactile	right	right	tactile	NA	126.684376737	FALSE	FALSE	FALSE	FALSE	TRUE	0
p10	2015	06	17	11	20	f	21	r	6.74403878208	4	53	0.662430880824	0.942803009047	visual	right	catch	tactile	NA	47.1607025247	FALSE	FALSE	FALSE	FALSE	TRUE	0
p10	2015	06	17	11	20	f	21	r	6.74403878208	4	54	0.482937317109	0.562488008914	visual	left	left	visual	NA	262.619046727	FALSE	FALSE	FALSE	FALSE	TRUE	0
p10	2015	06	17	11	20	f	21	r	6.74403878208	4	55	0.603469992056	1.15269588335	tactile	left	right	visual	NA	240.655718371	FALSE	FALSE	FALSE	FALSE	FALSE	0
p10	2015	06	17	11	20	f	21	r	6.74403878208	4	56	0.395940935006	1.46157107816	tactile	left	left	tactile	NA	43.706441531	FALSE	FALSE	FALSE	FALSE	TRUE	0
p10	2015	06	17	11	20	f	21	r	6.74403878208	4	57	0.605663227849	1.08793596119	tactile	left	right	tactile	NA	291.982189519	FALSE	FALSE	FALSE	FALSE	TRUE	0
p10	2015	06	17	11	20	f	21	r	6.74403878208	4	58	0.393915370107	0.982283170045	tactile	left	right	visual	NA	117.022082442	FALSE	FALSE	FALSE	FALSE	TRUE	0
p10	2015	06	17	11	20	f	21	r	6.74403878208	4	59	0.412290794076	1.21408059525	visual	right	left	tactile	NA	56.3864274882	FALSE	FALSE	FALSE	FALSE	FALSE	0
p10	2015	06	17	11	20	f	21	r	6.74403878208	4	60	0.439681421034	1.08249228802	visual	left	catch	visual	NA	116.028214805	FALSE	FALSE	FALSE	FALSE	FALSE	0
p10	2015	06	17	11	20	f	21	r	6.74403878208	4	61	0.492020193022	0.754988263827	visual	left	left	tactile	NA	286.37179872	FALSE	FALSE	FALSE	FALSE	FALSE	0
p10	2015	06	17	11	20	f	21	r	6.74403878208	4	62	0.411162222037	1.43901708355	tactile	right	right	visual	NA	379.821307259	FALSE	FALSE	FALSE	FALSE	TRUE	0
p10	2015	06	17	11	20	f	21	r	6.74403878208	4	63	0.406404637033	0.588131809628	visual	right	left	visual	NA	253.980949055	FALSE	FALSE	FALSE	FALSE	FALSE	0
p10	2015	06	17	11	20	f	21	r	6.74403878208	4	64	0.398666233988	0.966067843597	visual	right	right	visual	NA	58.6795599665	FALSE	FALSE	FALSE	FALSE	FALSE	0
p10	2015	06	17	11	20	f	21	r	6.74403878208	4	65	0.412666290067	1.120215103	tactile	left	right	tactile	NA	60.0647695828	FALSE	FALSE	FALSE	FALSE	TRUE	0
p10	2015	06	17	11	20	f	21	r	6.74403878208	4	66	0.398910538061	0.5236130785	visual	right	left	visual	NA	125.670438167	FALSE	FALSE	FALSE	FALSE	FALSE	0
p10	2015	06	17	11	20	f	21	r	6.74403878208	4	67	0.40041716001	0.957507284472	tactile	right	left	tactile	NA	169.00585941	FALSE	FALSE	FALSE	FALSE	FALSE	0
p10	2015	06	17	11	20	f	21	r	6.74403878208	4	68	0.409926302033	1.18580527799	visual	right	left	visual	NA	474.342410685	FALSE	FALSE	FALSE	FALSE	FALSE	0
p10	2015	06	17	11	20	f	21	r	6.74403878208	4	69	1.82388083986	1.14855491298	visual	left	left	visual	NA	227.586768568	FALSE	FALSE	FALSE	FALSE	TRUE	0
p10	2015	06	17	11	20	f	21	r	6.74403878208	4	70	0.398134026909	1.33771498175	tactile	right	left	tactile	NA	269.885359798	FALSE	FALSE	FALSE	FALSE	TRUE	0
p10	2015	06	17	11	20	f	21	r	6.74403878208	4	71	0.404652744997	1.25752330345	visual	left	left	visual	NA	120.514572132	FALSE	FALSE	FALSE	FALSE	FALSE	0
p10	2015	06	17	11	20	f	21	r	6.74403878208	4	72	0.435613310896	0.757954266362	visual	right	catch	tactile	NA	283.749158029	FALSE	FALSE	FALSE	FALSE	FALSE	0
p10	2015	06	17	11	20	f	21	r	6.74403878208	4	73	0.409634535201	0.737734227034	tactile	right	left	tactile	NA	296.721761581	FALSE	FALSE	FALSE	FALSE	TRUE	0
p10	2015	06	17	11	20	f	21	r	6.74403878208	4	74	0.395927574951	0.828070781353	tactile	right	right	visual	NA	376.785336295	FALSE	FALSE	FALSE	FALSE	TRUE	0
p10	2015	06	17	11	20	f	21	r	6.74403878208	4	75	0.39631772181	1.16759386719	tactile	right	left	tactile	NA	44.7167663369	FALSE	FALSE	FALSE	FALSE	TRUE	0
p10	2015	06	17	11	20	f	21	r	6.74403878208	4	76	0.430595917162	0.894048119319	tactile	left	left	visual	NA	170.064295176	FALSE	FALSE	FALSE	FALSE	FALSE	0
p10	2015	06	17	11	20	f	21	r	6.74403878208	4	77	0.396786493948	0.607675769021	visual	right	left	visual	NA	29.4692895841	FALSE	FALSE	FALSE	FALSE	FALSE	0
p10	2015	06	17	11	20	f	21	r	6.74403878208	4	78	0.396674063057	0.84124459004	tactile	left	catch	tactile	NA	155.821006512	FALSE	FALSE	FALSE	FALSE	TRUE	0
p10	2015	06	17	11	20	f	21	r	6.74403878208	4	79	1.72664598119	1.27043090642	tactile	left	left	tactile	NA	308.436821215	FALSE	FALSE	FALSE	FALSE	FALSE	0
p10	2015	06	17	11	20	f	21	r	6.74403878208	4	80	2.02747836988	0.81649201512	visual	left	left	visual	NA	263.864637585	FALSE	FALSE	FALSE	FALSE	FALSE	0
p10	2015	06	17	11	20	f	21	r	5.15636671497	4	81	2.11449072999	0.914568769297	tactile	left	right	tactile	NA	107.648020377	FALSE	FALSE	FALSE	FALSE	TRUE	0
p10	2015	06	17	11	20	f	21	r	5.15636671497	4	82	0.403769562952	0.908216730548	tactile	left	left	visual	NA	234.119531233	FALSE	FALSE	FALSE	FALSE	FALSE	0
p10	2015	06	17	11	20	f	21	r	5.15636671497	4	83	0.405419515911	1.49107826639	tactile	right	left	tactile	NA	188.181352103	FALSE	FALSE	FALSE	FALSE	TRUE	0
p10	2015	06	17	11	20	f	21	r	5.15636671497	4	84	0.403010722017	1.28135063155	tactile	left	right	visual	NA	171.118051047	FALSE	FALSE	FALSE	FALSE	FALSE	0
p10	2015	06	17	11	20	f	21	r	5.15636671497	4	85	0.392379461089	0.701769022493	visual	left	catch	tactile	NA	333.919540979	FALSE	FALSE	FALSE	FALSE	FALSE	0
p10	2015	06	17	11	20	f	21	r	5.15636671497	4	86	2.86083187605	0.791471373438	tactile	right	catch	tactile	NA	97.6071180776	FALSE	FALSE	FALSE	FALSE	FALSE	0
p10	2015	06	17	11	20	f	21	r	5.15636671497	4	87	0.511162044946	1.2491809583	tactile	right	right	visual	NA	297.794698272	FALSE	FALSE	FALSE	FALSE	TRUE	0
p10	2015	06	17	11	20	f	21	r	5.15636671497	4	88	0.402314678067	1.02104855113	visual	right	right	tactile	NA	229.420012562	FALSE	FALSE	FALSE	FALSE	FALSE	0
p10	2015	06	17	11	20	f	21	r	5.15636671497	4	89	1.32255607005	1.40079757043	visual	right	left	tactile	NA	236.638229107	FALSE	FALSE	FALSE	FALSE	TRUE	0
p10	2015	06	17	11	20	f	21	r	5.15636671497	4	90	1.33050392591	0.554578855471	visual	right	right	visual	NA	46.60841031	FALSE	FALSE	FALSE	FALSE	FALSE	0
p10	2015	06	17	11	20	f	21	r	5.15636671497	4	91	0.58445304702	1.11860670666	visual	left	right	visual	NA	301.877296995	FALSE	FALSE	FALSE	FALSE	FALSE	0
p10	2015	06	17	11	20	f	21	r	5.15636671497	4	92	0.390789825935	0.944697298798	visual	left	left	visual	NA	175.052839797	FALSE	FALSE	FALSE	FALSE	FALSE	0
p10	2015	06	17	11	20	f	21	r	5.15636671497	4	93	0.404371148208	1.06165323361	tactile	left	left	tactile	NA	45.0019920245	FALSE	FALSE	FALSE	FALSE	FALSE	0
p10	2015	06	17	11	20	f	21	r	5.15636671497	4	94	0.459893452935	0.594466350251	visual	left	right	tactile	NA	234.926142264	FALSE	FALSE	FALSE	FALSE	FALSE	0
p10	2015	06	17	11	20	f	21	r	5.15636671497	4	95	0.402599764988	0.688533844162	visual	left	right	tactile	NA	159.036751371	FALSE	FALSE	FALSE	FALSE	FALSE	0
p10	2015	06	17	11	20	f	21	r	5.15636671497	4	96	2.12647719588	0.66707782954	visual	left	right	visual	NA	275.069955969	FALSE	FALSE	FALSE	FALSE	TRUE	0
p10	2015	06	17	11	20	f	21	r	5.15636671497	4	97	0.398502343101	1.26846658991	tactile	right	right	tactile	NA	72.321459651	FALSE	FALSE	FALSE	FALSE	FALSE	0
p10	2015	06	17	11	20	f	21	r	5.15636671497	4	98	0.405461855	0.912883903741	visual	right	right	visual	NA	307.687489782	FALSE	FALSE	FALSE	FALSE	FALSE	0
p10	2015	06	17	11	20	f	21	r	5.15636671497	4	99	0.400671618991	0.823884375726	tactile	right	right	tactile	NA	161.175674992	FALSE	FALSE	FALSE	FALSE	FALSE	0
p10	2015	06	17	11	20	f	21	r	5.15636671497	4	100	0.404807600891	0.738077782091	tactile	right	right	visual	NA	446.160926484	FALSE	FALSE	FALSE	FALSE	TRUE	0
p10	2015	06	17	11	20	f	21	r	5.15636671497	4	101	2.0900302229	1.20569867476	visual	left	right	visual	voice	NA	TRUE	FALSE	FALSE	FALSE	TRUE	0
p10	2015	06	17	11	20	f	21	r	5.15636671497	4	102	0.723447293974	1.40868975591	visual	right	left	visual	voice	NA	TRUE	FALSE	FALSE	FALSE	TRUE	0
p10	2015	06	17	11	20	f	21	r	5.15636671497	4	103	0.797827716917	0.801644633513	visual	right	left	tactile	voice	NA	TRUE	FALSE	FALSE	FALSE	TRUE	0
p10	2015	06	17	11	20	f	21	r	5.15636671497	4	104	0.673958220053	1.20247784653	visual	right	right	visual	NA	370.641272049	FALSE	FALSE	FALSE	FALSE	TRUE	0
p10	2015	06	17	11	20	f	21	r	5.15636671497	4	105	0.394088409143	1.24430541849	visual	right	right	tactile	NA	102.268804098	FALSE	FALSE	FALSE	FALSE	FALSE	0
p10	2015	06	17	11	20	f	21	r	5.15636671497	4	106	0.406218091957	0.923071002949	tactile	right	left	visual	NA	277.7176206	FALSE	FALSE	FALSE	FALSE	FALSE	0
p10	2015	06	17	11	20	f	21	r	5.15636671497	4	107	0.408469676971	0.771649606145	visual	left	right	tactile	NA	202.335506445	FALSE	FALSE	FALSE	FALSE	FALSE	0
p10	2015	06	17	11	20	f	21	r	5.15636671497	4	108	2.1983844419	0.941125733017	visual	left	right	tactile	NA	186.633683508	FALSE	FALSE	FALSE	FALSE	FALSE	0
p10	2015	06	17	11	20	f	21	r	5.15636671497	4	109	0.401878768113	0.521872354454	visual	left	left	tactile	NA	178.132230183	FALSE	FALSE	FALSE	FALSE	TRUE	0
p10	2015	06	17	11	20	f	21	r	5.15636671497	4	110	0.399095962988	1.1296068517	visual	left	right	tactile	NA	161.735681118	FALSE	FALSE	FALSE	FALSE	TRUE	0
p10	2015	06	17	11	20	f	21	r	5.15636671497	4	111	1.93349240511	1.25313814181	visual	right	right	tactile	NA	53.699468961	FALSE	FALSE	FALSE	FALSE	TRUE	0
p10	2015	06	17	11	20	f	21	r	5.15636671497	4	112	0.402539852075	1.31432584335	visual	right	left	tactile	NA	226.749238325	FALSE	FALSE	FALSE	FALSE	TRUE	0
p10	2015	06	17	11	20	f	21	r	5.15636671497	4	113	0.41162182414	1.46787127375	visual	right	right	tactile	NA	234.972348902	FALSE	FALSE	FALSE	FALSE	TRUE	0
p10	2015	06	17	11	20	f	21	r	5.15636671497	4	114	1.71754231281	0.968166201621	tactile	left	right	visual	NA	200.187891955	FALSE	FALSE	FALSE	FALSE	TRUE	0
p10	2015	06	17	11	20	f	21	r	5.15636671497	4	115	0.395565989893	1.17860957632	tactile	right	catch	visual	voice	NA	TRUE	FALSE	FALSE	FALSE	TRUE	0
p10	2015	06	17	11	20	f	21	r	5.15636671497	4	116	0.940472951857	1.20124432933	tactile	right	left	visual	NA	155.434844317	FALSE	FALSE	FALSE	FALSE	TRUE	0
p10	2015	06	17	11	20	f	21	r	5.15636671497	4	117	0.403258865001	0.511258440294	tactile	right	right	tactile	NA	288.984901272	FALSE	FALSE	FALSE	FALSE	FALSE	0
