id	year	month	day	hour	minute	sex	age	handedness	message_viewing_time	block	trial_num	trial_initiation_time	fixation_duration	cue_modality	cue_location	target_location	target_modality	target_response_key	target_response_rt	pre_target_response	feedback_response	recalibration	blink	saccade	biggest_small_saccade	critical_blink	critical_saccade
p02	2015	06	24	14	55	m	21	r	10.140511372	practice	1	1.56903129499	0.879018176514	visual	left	left	tactile	NA	251.239957142	FALSE	FALSE	FALSE	FALSE	FALSE	0	FALSE	FALSE
p02	2015	06	24	14	55	m	21	r	10.140511372	practice	2	2.30253601601	0.706678041242	visual	left	left	visual	NA	NA	FALSE	FALSE	FALSE	FALSE	TRUE	0	FALSE	FALSE
p02	2015	06	24	14	55	m	21	r	10.140511372	practice	3	1.306499308	0.765888460641	visual	left	right	tactile	NA	NA	FALSE	FALSE	FALSE	FALSE	TRUE	0	FALSE	FALSE
p02	2015	06	24	14	55	m	21	r	10.140511372	practice	4	1.510955434	1.39227815653	visual	left	left	visual	NA	NA	FALSE	FALSE	FALSE	FALSE	TRUE	0	FALSE	TRUE
p02	2015	06	24	14	55	m	21	r	10.140511372	practice	5	1.04739544701	0.615832421352	visual	left	left	tactile	NA	NA	FALSE	FALSE	FALSE	FALSE	TRUE	0	FALSE	TRUE
p02	2015	06	24	14	55	m	21	r	10.140511372	practice	6	1.21465607701	1.37742427522	visual	right	catch	visual	NA	NA	FALSE	FALSE	FALSE	FALSE	FALSE	0	FALSE	FALSE
p02	2015	06	24	14	55	m	21	r	10.140511372	practice	7	0.871042888	1.07844673513	tactile	left	right	tactile	NA	288.009140524	FALSE	FALSE	FALSE	FALSE	FALSE	0	FALSE	FALSE
p02	2015	06	24	14	55	m	21	r	10.140511372	practice	8	0.512180724007	0.778999735643	visual	left	left	visual	NA	NA	FALSE	FALSE	FALSE	FALSE	TRUE	0	FALSE	FALSE
p02	2015	06	24	14	55	m	21	r	10.140511372	practice	9	0.948773487005	1.15763443629	tactile	left	catch	visual	NA	NA	FALSE	FALSE	FALSE	FALSE	FALSE	0	FALSE	FALSE
p02	2015	06	24	14	55	m	21	r	10.140511372	practice	10	0.79887973002	1.35564835887	visual	left	left	visual	NA	NA	FALSE	FALSE	FALSE	FALSE	TRUE	0	FALSE	TRUE
p02	2015	06	24	14	55	m	21	r	10.140511372	practice	11	0.976755131996	1.33307597552	tactile	left	right	visual	NA	344.219200138	FALSE	FALSE	FALSE	FALSE	FALSE	0	FALSE	FALSE
p02	2015	06	24	14	55	m	21	r	10.140511372	practice	12	0.422835627978	0.544120166837	visual	left	left	visual	NA	NA	FALSE	FALSE	FALSE	FALSE	TRUE	0	FALSE	TRUE
p02	2015	06	24	14	55	m	21	r	10.140511372	practice	13	0.65110800101	0.966619993323	visual	left	left	tactile	NA	225.697809336	FALSE	FALSE	FALSE	FALSE	FALSE	0	FALSE	FALSE
p02	2015	06	24	14	55	m	21	r	10.140511372	practice	14	0.405809791002	0.687775129842	tactile	right	right	tactile	NA	NA	FALSE	FALSE	FALSE	FALSE	TRUE	0	FALSE	FALSE
p02	2015	06	24	14	55	m	21	r	10.140511372	practice	15	1.16766420202	0.512411922692	visual	right	right	visual	NA	417.052493984	FALSE	FALSE	FALSE	FALSE	FALSE	0	FALSE	FALSE
p02	2015	06	24	14	55	m	21	r	10.140511372	practice	16	0.410039574024	0.665848979988	tactile	left	catch	tactile	NA	333.186873671	FALSE	FALSE	FALSE	FALSE	FALSE	0	FALSE	FALSE
p02	2015	06	24	14	55	m	21	r	10.140511372	practice	17	0.562458208995	1.32832655125	visual	right	left	visual	NA	307.650083414	FALSE	FALSE	FALSE	FALSE	FALSE	0	FALSE	FALSE
p02	2015	06	24	14	55	m	21	r	10.140511372	practice	18	0.415566160984	0.854732614833	visual	right	left	visual	NA	258.797610848	FALSE	FALSE	FALSE	FALSE	FALSE	0	FALSE	FALSE
p02	2015	06	24	14	55	m	21	r	10.140511372	practice	19	1.155388196	0.733573940366	tactile	right	left	tactile	NA	NA	FALSE	FALSE	FALSE	FALSE	TRUE	0	FALSE	TRUE
p02	2015	06	24	14	55	m	21	r	10.140511372	practice	20	0.410378731991	0.807707573364	tactile	right	right	visual	voice	NA	TRUE	FALSE	FALSE	FALSE	FALSE	0	FALSE	FALSE
p02	2015	06	24	14	55	m	21	r	10.140511372	practice	21	1.25930042699	1.27113330855	visual	left	left	visual	NA	NA	FALSE	FALSE	FALSE	FALSE	TRUE	0	FALSE	FALSE
p02	2015	06	24	14	55	m	21	r	10.140511372	practice	22	1.13008985299	1.3244513073	visual	left	left	tactile	NA	NA	FALSE	FALSE	FALSE	FALSE	TRUE	0	FALSE	TRUE
p02	2015	06	24	14	55	m	21	r	10.140511372	practice	23	1.25151897501	0.712403162934	tactile	left	left	tactile	NA	NA	FALSE	FALSE	FALSE	FALSE	TRUE	0	FALSE	FALSE
p02	2015	06	24	14	55	m	21	r	10.140511372	practice	24	0.859230967995	1.4528446194	visual	left	left	visual	NA	NA	FALSE	FALSE	FALSE	FALSE	TRUE	0	FALSE	FALSE
p02	2015	06	24	14	55	m	21	r	10.140511372	practice	25	2.14014259598	1.44666666359	tactile	left	left	tactile	NA	NA	FALSE	FALSE	FALSE	FALSE	TRUE	0	FALSE	TRUE
p02	2015	06	24	14	55	m	21	r	10.140511372	practice	26	1.17661964599	1.07968006039	tactile	left	left	tactile	NA	245.712266274	FALSE	FALSE	FALSE	FALSE	FALSE	0	FALSE	FALSE
p02	2015	06	24	14	55	m	21	r	10.140511372	practice	27	0.400720782985	1.42532209658	tactile	right	right	visual	NA	NA	FALSE	FALSE	FALSE	FALSE	TRUE	0	FALSE	FALSE
p02	2015	06	24	14	55	m	21	r	10.140511372	practice	28	0.712502265	0.893629480804	tactile	left	left	tactile	NA	246.061509883	FALSE	FALSE	FALSE	FALSE	FALSE	0	FALSE	FALSE
p02	2015	06	24	14	55	m	21	r	10.140511372	practice	29	0.411340847	1.38667695623	visual	left	right	tactile	NA	NA	FALSE	FALSE	FALSE	FALSE	TRUE	0	FALSE	FALSE
p02	2015	06	24	14	55	m	21	r	10.140511372	practice	30	1.625912321	1.42760485711	tactile	right	left	tactile	NA	NA	FALSE	FALSE	FALSE	FALSE	TRUE	0	FALSE	FALSE
p02	2015	06	24	14	55	m	21	r	10.140511372	practice	31	1.58237020401	0.986377202144	visual	left	right	visual	NA	224.244875513	FALSE	FALSE	FALSE	FALSE	FALSE	0	FALSE	FALSE
p02	2015	06	24	14	55	m	21	r	10.140511372	practice	32	0.412881317025	0.529991589725	tactile	right	left	tactile	NA	234.743797948	FALSE	FALSE	FALSE	FALSE	FALSE	0	FALSE	FALSE
p02	2015	06	24	14	55	m	21	r	10.140511372	practice	33	0.399833186995	1.06222619873	tactile	right	right	tactile	NA	217.747067945	FALSE	FALSE	FALSE	FALSE	FALSE	0	FALSE	FALSE
p02	2015	06	24	14	55	m	21	r	10.140511372	practice	34	1.720271456	0.770308104565	tactile	left	left	visual	NA	267.443928082	FALSE	FALSE	FALSE	FALSE	FALSE	0	FALSE	FALSE
p02	2015	06	24	14	55	m	21	r	10.140511372	practice	35	0.481936001015	1.48065475705	visual	left	left	visual	NA	NA	FALSE	FALSE	FALSE	FALSE	TRUE	0	FALSE	FALSE
p02	2015	06	24	14	55	m	21	r	10.140511372	practice	36	7.99486532502	1.38480389107	tactile	right	left	visual	NA	371.642956597	FALSE	FALSE	FALSE	FALSE	FALSE	0	FALSE	FALSE
p02	2015	06	24	14	55	m	21	r	10.140511372	practice	37	0.568110188993	1.15239180594	tactile	right	left	tactile	NA	NA	FALSE	FALSE	FALSE	FALSE	TRUE	0	FALSE	TRUE
p02	2015	06	24	14	55	m	21	r	10.140511372	practice	38	0.600644611986	0.994784276421	tactile	left	right	visual	NA	NA	FALSE	FALSE	FALSE	FALSE	TRUE	0	FALSE	FALSE
p02	2015	06	24	14	55	m	21	r	10.140511372	practice	39	0.840387423988	1.2457811662	visual	left	right	tactile	NA	245.087957475	FALSE	FALSE	FALSE	FALSE	FALSE	0	FALSE	FALSE
p02	2015	06	24	14	55	m	21	r	10.140511372	practice	40	0.811335387989	1.22353990802	visual	left	right	visual	NA	NA	FALSE	FALSE	FALSE	FALSE	TRUE	0	FALSE	TRUE
p02	2015	06	24	14	55	m	21	r	92.316109507	practice	41	2.57581821302	1.40327435648	tactile	right	right	visual	NA	304.119815177	FALSE	FALSE	FALSE	FALSE	FALSE	0	FALSE	FALSE
p02	2015	06	24	14	55	m	21	r	92.316109507	practice	42	0.488625949016	0.539544832034	tactile	left	right	visual	NA	236.621955642	FALSE	FALSE	FALSE	FALSE	FALSE	0	FALSE	FALSE
p02	2015	06	24	14	55	m	21	r	92.316109507	practice	43	0.481555748993	0.51171160637	tactile	left	right	visual	NA	253.651139297	FALSE	FALSE	FALSE	FALSE	FALSE	0	FALSE	FALSE
p02	2015	06	24	14	55	m	21	r	92.316109507	practice	44	0.407416369999	1.34731000597	visual	left	left	visual	NA	NA	FALSE	FALSE	FALSE	FALSE	TRUE	0	FALSE	FALSE
p02	2015	06	24	14	55	m	21	r	92.316109507	practice	45	0.595085291017	0.972021396031	tactile	left	left	visual	NA	270.881640608	FALSE	FALSE	FALSE	FALSE	FALSE	0	FALSE	FALSE
p02	2015	06	24	14	55	m	21	r	92.316109507	practice	46	0.417238740018	0.917326800636	tactile	left	left	tactile	NA	224.991880008	FALSE	FALSE	FALSE	FALSE	FALSE	0	FALSE	FALSE
p02	2015	06	24	14	55	m	21	r	92.316109507	practice	47	0.371909809008	1.27324422719	visual	left	left	visual	NA	333.154107444	FALSE	FALSE	FALSE	FALSE	FALSE	0	FALSE	FALSE
p02	2015	06	24	14	55	m	21	r	92.316109507	practice	48	0.423386862996	1.45071574272	visual	left	left	visual	NA	281.427645939	FALSE	FALSE	FALSE	FALSE	FALSE	0	FALSE	FALSE
p02	2015	06	24	14	55	m	21	r	92.316109507	practice	49	1.37086341	0.649553415491	visual	left	right	visual	NA	NA	FALSE	FALSE	FALSE	FALSE	TRUE	0	FALSE	FALSE
p02	2015	06	24	14	55	m	21	r	92.316109507	practice	50	0.898051969998	1.28011969547	tactile	right	left	tactile	NA	NA	FALSE	FALSE	FALSE	FALSE	TRUE	0	FALSE	FALSE
p02	2015	06	24	14	55	m	21	r	92.316109507	practice	51	1.168428659	0.778520375262	tactile	left	left	visual	voice	NA	TRUE	FALSE	FALSE	FALSE	FALSE	0	FALSE	FALSE
p02	2015	06	24	14	55	m	21	r	92.316109507	practice	52	0.580597656983	1.02581683462	tactile	right	catch	tactile	voice	NA	TRUE	FALSE	FALSE	FALSE	FALSE	0	FALSE	FALSE
p02	2015	06	24	14	55	m	21	r	92.316109507	practice	53	1.385237173	0.597353253687	visual	left	right	visual	NA	NA	FALSE	FALSE	FALSE	FALSE	TRUE	0	FALSE	TRUE
p02	2015	06	24	14	55	m	21	r	92.316109507	practice	54	2.37155353799	1.48363155835	tactile	right	right	tactile	NA	208.458092326	FALSE	FALSE	FALSE	FALSE	FALSE	0	FALSE	FALSE
p02	2015	06	24	14	55	m	21	r	92.316109507	practice	55	0.429506582004	0.686099551103	tactile	right	left	tactile	NA	261.600844562	FALSE	FALSE	FALSE	FALSE	FALSE	0	FALSE	FALSE
p02	2015	06	24	14	55	m	21	r	92.316109507	practice	56	0.443147790997	0.723589354139	visual	left	catch	visual	NA	NA	FALSE	FALSE	FALSE	FALSE	TRUE	0	FALSE	FALSE
p02	2015	06	24	14	55	m	21	r	92.316109507	practice	57	0.939131463994	0.73460973629	visual	left	catch	visual	NA	NA	FALSE	FALSE	FALSE	FALSE	FALSE	0	FALSE	FALSE
p02	2015	06	24	14	55	m	21	r	92.316109507	practice	58	1.545664829	1.37246892492	visual	left	left	visual	voice	NA	TRUE	FALSE	FALSE	FALSE	FALSE	0	FALSE	FALSE
p02	2015	06	24	14	55	m	21	r	92.316109507	practice	59	0.978224656021	0.570397606584	visual	left	right	visual	NA	355.824406084	FALSE	FALSE	FALSE	FALSE	FALSE	0	FALSE	FALSE
p02	2015	06	24	14	55	m	21	r	92.316109507	practice	60	0.421984248009	0.945528733455	tactile	right	left	tactile	NA	NA	FALSE	FALSE	FALSE	FALSE	TRUE	0	FALSE	FALSE
p02	2015	06	24	14	55	m	21	r	92.316109507	practice	61	0.762210854999	1.04119116754	visual	right	left	visual	voice	NA	TRUE	FALSE	FALSE	FALSE	FALSE	0	FALSE	FALSE
p02	2015	06	24	14	55	m	21	r	92.316109507	practice	62	0.959704120993	1.45024822067	visual	left	right	visual	NA	226.511065004	FALSE	FALSE	FALSE	FALSE	FALSE	0	FALSE	FALSE
p02	2015	06	24	14	55	m	21	r	92.316109507	practice	63	1.23922638598	1.45646509797	visual	right	left	tactile	NA	241.046691721	FALSE	FALSE	FALSE	FALSE	FALSE	0	FALSE	FALSE
p02	2015	06	24	14	55	m	21	r	92.316109507	practice	64	0.461095006001	1.43358314708	tactile	right	right	visual	NA	NA	FALSE	FALSE	FALSE	FALSE	TRUE	0	FALSE	FALSE
p02	2015	06	24	14	55	m	21	r	92.316109507	practice	65	4.86160157699	1.18693525464	tactile	right	left	tactile	NA	NA	FALSE	FALSE	FALSE	FALSE	TRUE	0	FALSE	TRUE
p02	2015	06	24	14	55	m	21	r	92.316109507	practice	66	1.51996598	1.42253252474	tactile	right	right	visual	NA	275.40491891	FALSE	FALSE	FALSE	FALSE	FALSE	0	FALSE	FALSE
p02	2015	06	24	14	55	m	21	r	92.316109507	practice	67	0.532207765995	0.584050499117	tactile	right	left	tactile	NA	224.779196549	FALSE	FALSE	FALSE	FALSE	FALSE	0	FALSE	FALSE
p02	2015	06	24	14	55	m	21	r	92.316109507	practice	68	0.656182414008	0.857241427937	tactile	right	left	tactile	NA	NA	FALSE	FALSE	FALSE	FALSE	TRUE	0	FALSE	FALSE
p02	2015	06	24	14	55	m	21	r	92.316109507	practice	69	1.56272735598	1.48433046893	visual	left	left	tactile	NA	NA	FALSE	FALSE	FALSE	FALSE	TRUE	0	FALSE	FALSE
p02	2015	06	24	14	55	m	21	r	92.316109507	practice	70	65.676265348	1.23840593632	visual	left	left	tactile	NA	NA	FALSE	FALSE	FALSE	FALSE	TRUE	0	FALSE	TRUE
p02	2015	06	24	14	55	m	21	r	92.316109507	practice	71	0.968533255014	1.06474489019	visual	left	left	tactile	NA	284.561259468	FALSE	FALSE	FALSE	FALSE	FALSE	0	FALSE	FALSE
p02	2015	06	24	14	55	m	21	r	92.316109507	practice	72	0.634610413981	0.866401458395	tactile	right	left	tactile	NA	203.088491282	FALSE	FALSE	FALSE	FALSE	FALSE	0	FALSE	FALSE
p02	2015	06	24	14	55	m	21	r	58.571475752	1	1	142.649372356	1.07001553853	visual	left	catch	tactile	NA	NA	FALSE	FALSE	FALSE	FALSE	TRUE	0	FALSE	TRUE
p02	2015	06	24	14	55	m	21	r	58.571475752	1	2	0.599088620016	0.678749376302	tactile	right	right	tactile	NA	274.163959373	FALSE	FALSE	FALSE	FALSE	FALSE	0	FALSE	FALSE
p02	2015	06	24	14	55	m	21	r	58.571475752	1	3	0.556349655992	1.09814200514	tactile	left	right	tactile	NA	242.835743527	FALSE	FALSE	FALSE	FALSE	TRUE	0	FALSE	FALSE
p02	2015	06	24	14	55	m	21	r	58.571475752	1	4	0.632212891011	0.821855348087	visual	right	right	visual	NA	244.313729549	FALSE	FALSE	FALSE	FALSE	FALSE	0	FALSE	FALSE
p02	2015	06	24	14	55	m	21	r	58.571475752	1	5	1.704494682	1.15977699691	visual	right	left	visual	NA	394.945004751	FALSE	FALSE	FALSE	FALSE	FALSE	0	FALSE	FALSE
p02	2015	06	24	14	55	m	21	r	58.571475752	1	6	0.436746808002	0.681579289582	visual	left	catch	tactile	NA	NA	FALSE	FALSE	FALSE	FALSE	FALSE	0	FALSE	FALSE
p02	2015	06	24	14	55	m	21	r	58.571475752	1	7	1.64052269	1.0999377696	visual	right	right	tactile	NA	229.762931034	FALSE	FALSE	FALSE	FALSE	FALSE	0	FALSE	FALSE
p02	2015	06	24	14	55	m	21	r	58.571475752	1	8	0.673532727989	1.17993560929	tactile	left	catch	visual	NA	NA	FALSE	FALSE	FALSE	FALSE	TRUE	0	FALSE	FALSE
p02	2015	06	24	14	55	m	21	r	58.571475752	1	9	3.06273961498	0.514575843578	tactile	left	right	visual	NA	323.031176085	FALSE	FALSE	FALSE	FALSE	FALSE	0	FALSE	FALSE
p02	2015	06	24	14	55	m	21	r	58.571475752	1	10	1.237005934	1.32419438189	tactile	right	left	tactile	NA	210.55369376	FALSE	FALSE	FALSE	FALSE	FALSE	0	FALSE	FALSE
p02	2015	06	24	14	55	m	21	r	58.571475752	1	11	0.422784279013	1.16521444422	visual	right	left	visual	NA	241.853084444	FALSE	FALSE	FALSE	FALSE	TRUE	0	FALSE	TRUE
p02	2015	06	24	14	55	m	21	r	58.571475752	1	12	0.771013070975	0.514826240968	tactile	left	right	tactile	NA	261.870301678	FALSE	FALSE	FALSE	FALSE	TRUE	0	FALSE	TRUE
p02	2015	06	24	14	55	m	21	r	58.571475752	1	13	0.578487812018	0.730938869278	visual	right	left	tactile	NA	222.25273939	FALSE	FALSE	FALSE	FALSE	TRUE	0	FALSE	TRUE
p02	2015	06	24	14	55	m	21	r	58.571475752	1	14	0.632872457994	0.520441680967	visual	left	right	tactile	NA	253.584890685	FALSE	FALSE	FALSE	FALSE	TRUE	0	FALSE	TRUE
p02	2015	06	24	14	55	m	21	r	58.571475752	1	15	0.489504024998	1.12432850457	tactile	right	right	visual	NA	238.961948082	FALSE	FALSE	FALSE	FALSE	TRUE	0	FALSE	TRUE
p02	2015	06	24	14	55	m	21	r	58.571475752	1	16	0.482562962978	1.42131166483	visual	left	right	visual	NA	254.069132818	FALSE	FALSE	FALSE	FALSE	TRUE	0	FALSE	TRUE
p02	2015	06	24	14	55	m	21	r	58.571475752	1	17	0.41328157502	0.900845705737	visual	right	right	visual	NA	258.833089931	FALSE	FALSE	FALSE	FALSE	TRUE	0	FALSE	TRUE
p02	2015	06	24	14	55	m	21	r	58.571475752	1	18	0.419978584017	1.32203405149	tactile	right	right	tactile	NA	178.483145166	FALSE	FALSE	FALSE	FALSE	TRUE	0	FALSE	FALSE
p02	2015	06	24	14	55	m	21	r	58.571475752	1	19	3.58178497601	0.933884773986	visual	left	left	visual	NA	153.514969687	FALSE	FALSE	FALSE	FALSE	TRUE	0	FALSE	TRUE
p02	2015	06	24	14	55	m	21	r	58.571475752	1	20	0.582731831993	1.07639938777	visual	left	right	tactile	NA	223.034576891	FALSE	FALSE	FALSE	FALSE	TRUE	0	FALSE	TRUE
p02	2015	06	24	14	55	m	21	r	58.571475752	1	21	0.429645882017	1.34262508889	tactile	left	left	visual	NA	321.941105765	FALSE	FALSE	FALSE	FALSE	TRUE	0	FALSE	FALSE
p02	2015	06	24	14	55	m	21	r	58.571475752	1	22	0.413538088003	1.28259611533	visual	left	right	visual	NA	279.917095322	FALSE	FALSE	FALSE	FALSE	TRUE	0	FALSE	FALSE
p02	2015	06	24	14	55	m	21	r	58.571475752	1	23	0.404240533011	1.49470548006	tactile	right	right	visual	NA	314.649593609	FALSE	FALSE	FALSE	FALSE	TRUE	0	FALSE	TRUE
p02	2015	06	24	14	55	m	21	r	58.571475752	1	24	0.424728478974	0.947770183709	visual	left	right	tactile	NA	273.721369973	FALSE	FALSE	FALSE	FALSE	TRUE	0	FALSE	FALSE
p02	2015	06	24	14	55	m	21	r	58.571475752	1	25	0.411070604983	0.529870167793	tactile	right	left	tactile	NA	301.195440872	FALSE	FALSE	FALSE	FALSE	TRUE	0	FALSE	TRUE
p02	2015	06	24	14	55	m	21	r	58.571475752	1	26	0.419342787005	1.25128547861	visual	right	left	visual	NA	290.084334032	FALSE	FALSE	FALSE	FALSE	TRUE	0	FALSE	TRUE
p02	2015	06	24	14	55	m	21	r	58.571475752	1	27	0.594548697001	1.46929769732	visual	right	left	visual	NA	306.852395326	FALSE	FALSE	FALSE	FALSE	TRUE	0	FALSE	FALSE
p02	2015	06	24	14	55	m	21	r	58.571475752	1	28	0.416476034996	0.596907766159	tactile	left	left	tactile	NA	239.51425351	FALSE	FALSE	FALSE	FALSE	TRUE	0	FALSE	TRUE
p02	2015	06	24	14	55	m	21	r	58.571475752	1	29	0.472658835002	0.591595130934	visual	right	left	visual	NA	132.857928722	FALSE	FALSE	FALSE	FALSE	TRUE	0	FALSE	TRUE
p02	2015	06	24	14	55	m	21	r	58.571475752	1	30	0.477347423992	0.892197532261	tactile	left	right	visual	NA	11.5543794236	FALSE	FALSE	FALSE	FALSE	TRUE	0	FALSE	TRUE
p02	2015	06	24	14	55	m	21	r	58.571475752	1	31	0.417498480005	0.758319145219	visual	left	left	tactile	NA	136.496639461	FALSE	FALSE	FALSE	FALSE	FALSE	0	FALSE	FALSE
p02	2015	06	24	14	55	m	21	r	58.571475752	1	32	17.930592467	0.748423708505	tactile	left	right	tactile	voice	NA	TRUE	FALSE	FALSE	FALSE	FALSE	0	FALSE	FALSE
p02	2015	06	24	14	55	m	21	r	58.571475752	1	33	1.12214554899	0.852937954452	tactile	right	right	tactile	NA	214.017853199	FALSE	FALSE	FALSE	FALSE	FALSE	0	FALSE	FALSE
p02	2015	06	24	14	55	m	21	r	58.571475752	1	34	0.636404914985	0.797631535654	tactile	right	left	visual	NA	295.704522985	FALSE	FALSE	FALSE	FALSE	FALSE	0	FALSE	FALSE
p02	2015	06	24	14	55	m	21	r	58.571475752	1	35	0.566676329996	0.683369513524	tactile	left	right	visual	NA	264.592774154	FALSE	FALSE	FALSE	FALSE	TRUE	0	FALSE	FALSE
p02	2015	06	24	14	55	m	21	r	58.571475752	1	36	0.807924266002	0.963756656407	tactile	left	left	tactile	NA	176.201721246	FALSE	FALSE	FALSE	FALSE	TRUE	0	FALSE	TRUE
p02	2015	06	24	14	55	m	21	r	58.571475752	1	37	0.770848382002	0.627096663474	tactile	left	left	tactile	NA	211.631405196	FALSE	FALSE	FALSE	FALSE	TRUE	0	FALSE	FALSE
p02	2015	06	24	14	55	m	21	r	58.571475752	1	38	0.645608141	1.16675114174	visual	left	right	visual	NA	245.32099592	FALSE	FALSE	FALSE	FALSE	FALSE	0	FALSE	FALSE
p02	2015	06	24	14	55	m	21	r	58.571475752	1	39	0.578603114991	0.854375636004	tactile	right	catch	visual	NA	NA	FALSE	FALSE	FALSE	FALSE	FALSE	0	FALSE	FALSE
p02	2015	06	24	14	55	m	21	r	58.571475752	1	40	0.486821376981	0.694109944321	tactile	left	catch	tactile	NA	NA	FALSE	FALSE	FALSE	FALSE	TRUE	0	FALSE	TRUE
p02	2015	06	24	14	55	m	21	r	48.943135671	1	41	1.43496042999	0.612343396124	visual	right	left	visual	NA	270.717664534	FALSE	FALSE	FALSE	FALSE	FALSE	0	FALSE	FALSE
p02	2015	06	24	14	55	m	21	r	48.943135671	1	42	0.701764055004	0.982368899661	visual	right	left	tactile	NA	205.878581008	FALSE	FALSE	FALSE	FALSE	TRUE	0	FALSE	FALSE
p02	2015	06	24	14	55	m	21	r	48.943135671	1	43	0.659870747011	1.38248731149	visual	right	left	visual	NA	242.980098177	FALSE	FALSE	FALSE	FALSE	FALSE	0	FALSE	FALSE
p02	2015	06	24	14	55	m	21	r	48.943135671	1	44	0.965686586977	1.35443905643	visual	left	right	visual	NA	18.0871862394	FALSE	FALSE	FALSE	FALSE	FALSE	0	FALSE	FALSE
p02	2015	06	24	14	55	m	21	r	48.943135671	1	45	0.422235718986	1.21448668387	visual	left	left	tactile	NA	239.711696806	FALSE	FALSE	FALSE	FALSE	TRUE	0	FALSE	FALSE
p02	2015	06	24	14	55	m	21	r	48.943135671	1	46	2.25617966501	0.520842173398	tactile	right	right	tactile	NA	168.126630248	FALSE	FALSE	FALSE	FALSE	FALSE	0	FALSE	FALSE
p02	2015	06	24	14	55	m	21	r	48.943135671	1	47	0.672356937022	0.996399765039	visual	left	left	tactile	NA	257.805438596	FALSE	FALSE	FALSE	FALSE	TRUE	0	FALSE	TRUE
p02	2015	06	24	14	55	m	21	r	48.943135671	1	48	0.636209834018	0.842716728343	visual	right	catch	visual	NA	365.596106305	FALSE	FALSE	FALSE	FALSE	TRUE	0	FALSE	TRUE
p02	2015	06	24	14	55	m	21	r	48.943135671	1	49	0.424682384008	1.00875869648	visual	right	right	tactile	NA	244.85963519	FALSE	FALSE	FALSE	FALSE	FALSE	0	FALSE	FALSE
p02	2015	06	24	14	55	m	21	r	48.943135671	1	50	0.533849750005	0.835032950475	tactile	right	right	tactile	NA	194.265941187	FALSE	FALSE	FALSE	FALSE	TRUE	0	FALSE	FALSE
p02	2015	06	24	14	55	m	21	r	48.943135671	1	51	0.599073279998	1.11423112107	visual	left	right	visual	NA	276.554317563	FALSE	FALSE	FALSE	FALSE	FALSE	0	FALSE	FALSE
p02	2015	06	24	14	55	m	21	r	48.943135671	1	52	0.609943193005	0.708965425805	tactile	right	left	visual	NA	288.870823861	FALSE	FALSE	FALSE	FALSE	TRUE	0	FALSE	FALSE
p02	2015	06	24	14	55	m	21	r	48.943135671	1	53	0.550524230988	1.086129788	tactile	right	right	tactile	NA	199.805918644	FALSE	FALSE	FALSE	FALSE	TRUE	0	FALSE	TRUE
p02	2015	06	24	14	55	m	21	r	48.943135671	1	54	0.53947938999	0.710175790667	tactile	right	right	tactile	NA	199.597700994	FALSE	FALSE	FALSE	FALSE	TRUE	0	FALSE	TRUE
p02	2015	06	24	14	55	m	21	r	48.943135671	1	55	0.577194050013	1.25343599781	visual	right	left	tactile	NA	254.346148839	FALSE	FALSE	FALSE	FALSE	FALSE	0	FALSE	FALSE
p02	2015	06	24	14	55	m	21	r	48.943135671	1	56	1.720957568	0.818642458549	visual	left	right	tactile	NA	254.534155101	FALSE	FALSE	FALSE	FALSE	FALSE	0	FALSE	FALSE
p02	2015	06	24	14	55	m	21	r	48.943135671	1	57	0.743599567999	0.98273114819	tactile	left	right	tactile	NA	187.815836485	FALSE	FALSE	FALSE	FALSE	TRUE	0	FALSE	FALSE
p02	2015	06	24	14	55	m	21	r	48.943135671	1	58	0.443045111984	0.53207046345	tactile	right	right	visual	NA	269.41366223	FALSE	FALSE	FALSE	FALSE	TRUE	0	FALSE	TRUE
p02	2015	06	24	14	55	m	21	r	48.943135671	1	59	0.470967896981	0.548984250027	tactile	left	catch	visual	NA	NA	FALSE	FALSE	FALSE	FALSE	TRUE	0	FALSE	FALSE
p02	2015	06	24	14	55	m	21	r	48.943135671	1	60	1.13626993002	1.15944316093	tactile	left	right	tactile	NA	215.622467746	FALSE	FALSE	FALSE	FALSE	TRUE	0	FALSE	TRUE
p02	2015	06	24	14	55	m	21	r	48.943135671	1	61	0.493288558006	0.880420042462	visual	right	right	tactile	NA	200.228989212	FALSE	FALSE	FALSE	FALSE	FALSE	0	FALSE	FALSE
p02	2015	06	24	14	55	m	21	r	48.943135671	1	62	0.492848124995	1.30162218543	visual	left	left	tactile	NA	193.382685247	FALSE	FALSE	FALSE	FALSE	TRUE	0	FALSE	TRUE
p02	2015	06	24	14	55	m	21	r	48.943135671	1	63	2.42226742199	0.887670434467	tactile	right	left	tactile	NA	234.307939187	FALSE	FALSE	FALSE	FALSE	TRUE	0	FALSE	FALSE
p02	2015	06	24	14	55	m	21	r	48.943135671	1	64	0.544528147002	1.19994279909	visual	left	left	visual	NA	252.823156596	FALSE	FALSE	FALSE	FALSE	TRUE	0	FALSE	TRUE
p02	2015	06	24	14	55	m	21	r	48.943135671	1	65	3.099443176	1.28637560163	visual	right	right	tactile	NA	212.975529052	FALSE	FALSE	FALSE	FALSE	TRUE	0	FALSE	TRUE
p02	2015	06	24	14	55	m	21	r	48.943135671	1	66	0.590230954986	0.942310955136	tactile	left	right	tactile	NA	194.312309526	FALSE	FALSE	FALSE	FALSE	FALSE	0	FALSE	FALSE
p02	2015	06	24	14	55	m	21	r	48.943135671	1	67	0.461172520008	0.936027075866	visual	right	right	visual	NA	316.497118794	FALSE	FALSE	FALSE	FALSE	TRUE	0	FALSE	FALSE
p02	2015	06	24	14	55	m	21	r	48.943135671	1	68	0.495466752996	1.386593625	visual	right	left	tactile	NA	228.992716642	FALSE	FALSE	FALSE	FALSE	TRUE	0	FALSE	TRUE
p02	2015	06	24	14	55	m	21	r	48.943135671	1	69	0.411086532986	0.705051296144	tactile	right	right	visual	NA	315.747888497	FALSE	FALSE	FALSE	FALSE	FALSE	0	FALSE	FALSE
p02	2015	06	24	14	55	m	21	r	48.943135671	1	70	0.504552294005	1.29625520879	tactile	right	right	tactile	voice	NA	TRUE	FALSE	FALSE	FALSE	FALSE	0	FALSE	FALSE
p02	2015	06	24	14	55	m	21	r	48.943135671	1	71	0.724327089993	0.543070797725	tactile	left	left	visual	NA	229.630928952	FALSE	FALSE	FALSE	FALSE	FALSE	0	FALSE	FALSE
p02	2015	06	24	14	55	m	21	r	48.943135671	1	72	0.463741578016	0.566456425984	tactile	left	left	tactile	NA	256.232259679	FALSE	FALSE	FALSE	FALSE	TRUE	0	FALSE	TRUE
p02	2015	06	24	14	55	m	21	r	48.943135671	1	73	0.524663585995	1.48007668163	visual	right	right	visual	NA	302.985463029	FALSE	FALSE	FALSE	FALSE	TRUE	0	FALSE	FALSE
p02	2015	06	24	14	55	m	21	r	48.943135671	1	74	7.53268796302	0.71747094693	tactile	left	left	tactile	NA	163.824542717	FALSE	FALSE	FALSE	FALSE	FALSE	0	FALSE	FALSE
p02	2015	06	24	14	55	m	21	r	48.943135671	1	75	0.415108526999	1.27195418539	tactile	right	right	visual	NA	439.801209257	FALSE	FALSE	FALSE	FALSE	FALSE	0	FALSE	FALSE
p02	2015	06	24	14	55	m	21	r	48.943135671	1	76	0.546577673987	0.988779864596	visual	left	left	visual	NA	244.372361078	FALSE	FALSE	FALSE	FALSE	TRUE	0	FALSE	FALSE
p02	2015	06	24	14	55	m	21	r	48.943135671	1	77	0.485963094019	1.05060250269	visual	left	left	tactile	NA	201.037593972	FALSE	FALSE	FALSE	FALSE	TRUE	0	FALSE	TRUE
p02	2015	06	24	14	55	m	21	r	48.943135671	1	78	0.437032792979	0.784168429713	visual	right	right	tactile	NA	169.524106954	FALSE	FALSE	FALSE	FALSE	FALSE	0	FALSE	FALSE
p02	2015	06	24	14	55	m	21	r	48.943135671	1	79	0.520488708979	0.864806771048	visual	left	right	tactile	NA	163.842896611	FALSE	FALSE	FALSE	FALSE	FALSE	0	FALSE	FALSE
p02	2015	06	24	14	55	m	21	r	48.943135671	1	80	0.445490552986	1.00050816572	tactile	left	right	tactile	NA	30.0621219503	FALSE	FALSE	FALSE	FALSE	TRUE	0	FALSE	TRUE
p02	2015	06	24	14	55	m	21	r	35.369838218	1	81	0.693794946012	0.740987679282	tactile	left	right	visual	NA	280.850161391	FALSE	FALSE	FALSE	FALSE	FALSE	0	FALSE	FALSE
p02	2015	06	24	14	55	m	21	r	35.369838218	1	82	0.591601130989	0.796269833776	tactile	left	left	visual	NA	236.239530874	FALSE	FALSE	FALSE	FALSE	TRUE	0	FALSE	FALSE
p02	2015	06	24	14	55	m	21	r	35.369838218	1	83	0.538152904017	0.55792697082	visual	left	left	tactile	NA	165.43090684	FALSE	FALSE	FALSE	FALSE	FALSE	0	FALSE	FALSE
p02	2015	06	24	14	55	m	21	r	35.369838218	1	84	0.532942156016	1.23035282501	tactile	right	left	tactile	NA	243.758635625	FALSE	FALSE	FALSE	FALSE	FALSE	0	FALSE	FALSE
p02	2015	06	24	14	55	m	21	r	35.369838218	1	85	0.403628909989	1.46348767106	tactile	left	left	visual	NA	586.411196622	FALSE	FALSE	FALSE	FALSE	TRUE	0	FALSE	FALSE
p02	2015	06	24	14	55	m	21	r	35.369838218	1	86	2.53135313198	1.03852560245	visual	right	catch	tactile	NA	461.133504228	FALSE	FALSE	FALSE	FALSE	TRUE	0	FALSE	FALSE
p02	2015	06	24	14	55	m	21	r	35.369838218	1	87	0.407073463022	1.42370076844	tactile	right	catch	tactile	NA	415.210039238	FALSE	FALSE	FALSE	FALSE	TRUE	0	FALSE	TRUE
p02	2015	06	24	14	55	m	21	r	35.369838218	1	88	0.681814520998	0.887502862123	visual	left	right	visual	NA	293.700316543	FALSE	FALSE	FALSE	FALSE	TRUE	0	FALSE	TRUE
p02	2015	06	24	14	55	m	21	r	35.369838218	1	89	0.458502229012	0.782720642259	tactile	right	left	visual	NA	233.032274409	FALSE	FALSE	FALSE	FALSE	TRUE	0	FALSE	TRUE
p02	2015	06	24	14	55	m	21	r	35.369838218	1	90	2.913480296	0.732610194308	visual	left	right	tactile	NA	263.079352357	FALSE	FALSE	FALSE	FALSE	FALSE	0	FALSE	FALSE
p02	2015	06	24	14	55	m	21	r	35.369838218	1	91	0.592211523996	1.23476851045	tactile	left	right	visual	NA	271.106292203	FALSE	FALSE	FALSE	FALSE	FALSE	0	FALSE	FALSE
p02	2015	06	24	14	55	m	21	r	35.369838218	1	92	0.549898604018	1.48099749517	tactile	right	right	tactile	NA	183.034504502	FALSE	FALSE	FALSE	FALSE	TRUE	0	FALSE	TRUE
p02	2015	06	24	14	55	m	21	r	35.369838218	1	93	0.687059021991	1.03064231311	tactile	right	left	visual	NA	374.116292573	FALSE	FALSE	FALSE	FALSE	FALSE	0	FALSE	FALSE
p02	2015	06	24	14	55	m	21	r	35.369838218	1	94	2.79431210601	1.27476103855	tactile	left	left	visual	NA	474.91303712	FALSE	FALSE	FALSE	FALSE	TRUE	0	FALSE	FALSE
p02	2015	06	24	14	55	m	21	r	35.369838218	1	95	2.23459316799	1.2430258523	visual	right	right	visual	NA	313.613031351	FALSE	FALSE	FALSE	FALSE	FALSE	0	FALSE	FALSE
p02	2015	06	24	14	55	m	21	r	35.369838218	1	96	2.733847036	1.04814383275	tactile	left	left	visual	NA	257.437856926	FALSE	FALSE	FALSE	FALSE	FALSE	0	FALSE	FALSE
p02	2015	06	24	14	55	m	21	r	35.369838218	1	97	2.127094753	1.12266487346	tactile	right	right	visual	NA	225.17802121	FALSE	FALSE	FALSE	FALSE	TRUE	0	FALSE	FALSE
p02	2015	06	24	14	55	m	21	r	35.369838218	1	98	3.25628533502	1.11783413087	visual	right	right	visual	NA	287.214142823	FALSE	FALSE	FALSE	FALSE	FALSE	0	FALSE	FALSE
p02	2015	06	24	14	55	m	21	r	35.369838218	1	99	3.636967856	0.518625506344	visual	right	catch	tactile	NA	119.287801324	FALSE	FALSE	FALSE	FALSE	FALSE	0	FALSE	FALSE
p02	2015	06	24	14	55	m	21	r	35.369838218	1	100	3.47804775802	1.38026641801	visual	right	right	tactile	NA	241.62798567	FALSE	FALSE	FALSE	FALSE	TRUE	0	FALSE	FALSE
p02	2015	06	24	14	55	m	21	r	35.369838218	1	101	8.02454633501	0.697434379211	visual	left	left	visual	NA	325.549354457	FALSE	FALSE	FALSE	FALSE	TRUE	0	FALSE	TRUE
p02	2015	06	24	14	55	m	21	r	35.369838218	1	102	2.225976177	0.537435783946	tactile	left	right	tactile	NA	193.835710699	FALSE	FALSE	FALSE	FALSE	TRUE	0	FALSE	TRUE
p02	2015	06	24	14	55	m	21	r	35.369838218	1	103	0.588014481997	1.25944062655	visual	left	right	tactile	NA	235.152834124	FALSE	FALSE	FALSE	FALSE	FALSE	0	FALSE	FALSE
p02	2015	06	24	14	55	m	21	r	35.369838218	1	104	0.409120719996	1.2421421128	visual	left	catch	visual	NA	299.052441871	FALSE	FALSE	FALSE	FALSE	FALSE	0	FALSE	FALSE
p02	2015	06	24	14	55	m	21	r	35.369838218	1	105	0.414172163	1.07757723934	visual	left	right	visual	NA	330.039310327	FALSE	FALSE	FALSE	FALSE	TRUE	0	FALSE	TRUE
p02	2015	06	24	14	55	m	21	r	35.369838218	1	106	0.675913512998	1.32566440619	visual	right	left	tactile	NA	204.143507464	FALSE	FALSE	FALSE	FALSE	TRUE	0	FALSE	TRUE
p02	2015	06	24	14	55	m	21	r	35.369838218	1	107	14.810538192	1.23016782767	tactile	right	left	tactile	voice	NA	TRUE	FALSE	FALSE	FALSE	FALSE	0	FALSE	FALSE
p02	2015	06	24	14	55	m	21	r	35.369838218	1	108	0.619414845016	0.822053833978	tactile	left	left	visual	NA	252.299007669	FALSE	FALSE	FALSE	FALSE	FALSE	0	FALSE	FALSE
p02	2015	06	24	14	55	m	21	r	35.369838218	1	109	0.777566717006	1.17174323165	tactile	right	left	visual	NA	332.303422008	FALSE	FALSE	FALSE	FALSE	TRUE	0	FALSE	FALSE
p02	2015	06	24	14	55	m	21	r	35.369838218	1	110	0.697821501992	0.652802869583	visual	right	right	visual	NA	283.362307062	FALSE	FALSE	FALSE	FALSE	FALSE	0	FALSE	FALSE
p02	2015	06	24	14	55	m	21	r	35.369838218	1	111	0.655984863988	0.592890151038	visual	left	left	visual	NA	533.179677615	FALSE	FALSE	FALSE	FALSE	TRUE	0	FALSE	TRUE
p02	2015	06	24	14	55	m	21	r	35.369838218	1	112	0.764124493988	1.38764473181	tactile	left	right	visual	NA	275.710046844	FALSE	FALSE	FALSE	FALSE	TRUE	0	FALSE	TRUE
p02	2015	06	24	14	55	m	21	r	35.369838218	1	113	0.642321009014	0.663877466597	visual	left	left	visual	NA	261.764904048	FALSE	FALSE	FALSE	FALSE	FALSE	0	FALSE	FALSE
p02	2015	06	24	14	55	m	21	r	35.369838218	1	114	0.76982079001	0.793184476763	tactile	right	left	tactile	NA	550.890359882	FALSE	FALSE	FALSE	FALSE	TRUE	0	FALSE	TRUE
p02	2015	06	24	14	55	m	21	r	35.369838218	1	115	0.464400280995	0.650854486664	tactile	left	left	tactile	NA	256.735496019	FALSE	FALSE	FALSE	FALSE	TRUE	0	FALSE	TRUE
p02	2015	06	24	14	55	m	21	r	35.369838218	1	116	0.433834873984	0.888933000604	visual	right	left	visual	NA	142.535082065	FALSE	FALSE	FALSE	FALSE	FALSE	0	FALSE	FALSE
p02	2015	06	24	14	55	m	21	r	35.369838218	1	117	0.40957069298	1.43374427437	visual	right	left	tactile	NA	230.019990267	FALSE	FALSE	FALSE	FALSE	FALSE	0	FALSE	FALSE
p02	2015	06	24	14	55	m	21	r	35.369838218	1	118	0.408780750993	0.918448976876	tactile	left	right	visual	NA	280.258713785	FALSE	FALSE	FALSE	FALSE	TRUE	0	FALSE	TRUE
p02	2015	06	24	14	55	m	21	r	35.369838218	1	119	0.416915894981	0.536827018874	visual	left	left	visual	NA	266.925586795	FALSE	FALSE	FALSE	FALSE	TRUE	0	FALSE	TRUE
p02	2015	06	24	14	55	m	21	r	35.369838218	1	120	0.555680502002	1.08217322748	tactile	left	right	tactile	NA	235.754233174	FALSE	FALSE	FALSE	FALSE	TRUE	0	FALSE	TRUE
p02	2015	06	24	14	55	m	21	r	6.90338989301	1	121	2.14124899099	1.38848987597	tactile	left	left	tactile	voice	NA	TRUE	FALSE	FALSE	FALSE	FALSE	0	FALSE	FALSE
p02	2015	06	24	14	55	m	21	r	6.90338989301	1	122	1.061217132	1.33297255524	tactile	right	left	tactile	NA	152.094893419	FALSE	FALSE	FALSE	FALSE	FALSE	0	FALSE	FALSE
p02	2015	06	24	14	55	m	21	r	6.90338989301	1	123	0.578743582009	0.702712647022	visual	right	left	tactile	NA	198.376189626	FALSE	FALSE	FALSE	FALSE	TRUE	0	FALSE	FALSE
p02	2015	06	24	14	55	m	21	r	6.90338989301	1	124	0.526062479999	1.37126503855	visual	left	right	visual	NA	242.361330107	FALSE	FALSE	FALSE	FALSE	FALSE	0	FALSE	FALSE
p02	2015	06	24	14	55	m	21	r	6.90338989301	1	125	0.41150226802	1.28982187508	visual	left	right	visual	NA	268.806321576	FALSE	FALSE	FALSE	FALSE	FALSE	0	FALSE	FALSE
p02	2015	06	24	14	55	m	21	r	6.90338989301	1	126	0.403193620994	0.848575178101	tactile	left	left	visual	NA	263.634622563	FALSE	FALSE	FALSE	FALSE	FALSE	0	FALSE	FALSE
p02	2015	06	24	14	55	m	21	r	6.90338989301	1	127	0.591898665996	1.48402518329	tactile	right	left	tactile	NA	258.937274368	FALSE	FALSE	FALSE	FALSE	FALSE	0	FALSE	FALSE
p02	2015	06	24	14	55	m	21	r	6.90338989301	1	128	2.216617978	0.848561113435	tactile	right	left	visual	NA	220.430888236	FALSE	FALSE	FALSE	FALSE	FALSE	0	FALSE	FALSE
p02	2015	06	24	14	55	m	21	r	6.90338989301	1	129	0.594284424995	1.06856041709	tactile	right	catch	visual	NA	NA	FALSE	FALSE	FALSE	FALSE	FALSE	0	FALSE	FALSE
p02	2015	06	24	14	55	m	21	r	6.90338989301	1	130	0.603519986005	0.627501387136	visual	right	left	tactile	NA	217.514969496	FALSE	FALSE	FALSE	FALSE	FALSE	0	FALSE	FALSE
p02	2015	06	24	14	55	m	21	r	6.90338989301	1	131	0.760224933008	0.768768054014	visual	right	right	tactile	NA	245.295289642	FALSE	FALSE	FALSE	FALSE	TRUE	0	FALSE	FALSE
p02	2015	06	24	14	55	m	21	r	6.90338989301	1	132	0.690446288005	1.05272221502	visual	right	right	visual	NA	277.357314655	FALSE	FALSE	FALSE	FALSE	TRUE	0	FALSE	FALSE
p02	2015	06	24	14	55	m	21	r	6.90338989301	1	133	0.629687748995	0.698014784444	tactile	left	catch	tactile	NA	204.281029233	FALSE	FALSE	FALSE	FALSE	FALSE	0	FALSE	FALSE
p02	2015	06	24	14	55	m	21	r	6.90338989301	1	134	0.412410071993	0.689390977954	visual	right	catch	visual	NA	305.847423704	FALSE	FALSE	FALSE	FALSE	FALSE	0	FALSE	FALSE
p02	2015	06	24	14	55	m	21	r	6.90338989301	1	135	3.84005101499	0.771095652047	tactile	right	right	visual	NA	359.650701634	FALSE	FALSE	FALSE	FALSE	FALSE	0	FALSE	FALSE
p02	2015	06	24	14	55	m	21	r	6.90338989301	1	136	0.610798529	0.62879077855	visual	left	right	tactile	NA	285.716752114	FALSE	FALSE	FALSE	FALSE	TRUE	0	FALSE	FALSE
p02	2015	06	24	14	55	m	21	r	6.90338989301	1	137	0.726309488004	0.823231162065	visual	left	left	tactile	NA	253.849160596	FALSE	FALSE	FALSE	FALSE	TRUE	0	FALSE	TRUE
p02	2015	06	24	14	55	m	21	r	6.90338989301	1	138	0.567445367982	0.54453836395	visual	right	right	tactile	NA	229.965286708	FALSE	FALSE	FALSE	FALSE	TRUE	0	FALSE	TRUE
p02	2015	06	24	14	55	m	21	r	6.90338989301	1	139	0.593463038997	1.20083979364	tactile	left	left	visual	NA	266.24197702	FALSE	FALSE	FALSE	FALSE	TRUE	0	FALSE	TRUE
p02	2015	06	24	14	55	m	21	r	6.90338989301	1	140	0.527109129005	1.49952801137	visual	right	right	tactile	NA	220.707789296	FALSE	FALSE	FALSE	FALSE	TRUE	0	FALSE	TRUE
p02	2015	06	24	14	55	m	21	r	6.90338989301	1	141	0.442284311022	1.13654530153	tactile	left	right	visual	NA	265.086113126	FALSE	FALSE	FALSE	FALSE	TRUE	0	FALSE	TRUE
p02	2015	06	24	14	55	m	21	r	6.90338989301	1	142	0.439712027	0.933715620821	visual	right	left	visual	NA	244.912383816	FALSE	FALSE	FALSE	FALSE	TRUE	0	FALSE	FALSE
p02	2015	06	24	14	55	m	21	r	6.90338989301	1	143	5.18313532401	1.02767458612	visual	left	left	visual	NA	291.026869527	FALSE	FALSE	FALSE	FALSE	TRUE	0	FALSE	TRUE
p02	2015	06	24	14	55	m	21	r	6.90338989301	1	144	0.660340439994	1.46957205515	visual	left	left	tactile	NA	253.565522522	FALSE	FALSE	FALSE	FALSE	TRUE	0	FALSE	TRUE
p02	2015	06	24	14	55	m	21	r	6.90338989301	1	145	0.755960670998	1.49871267955	tactile	right	right	visual	NA	421.800334094	FALSE	FALSE	FALSE	FALSE	TRUE	0	FALSE	FALSE
p02	2015	06	24	14	55	m	21	r	6.90338989301	1	146	0.541692565981	1.29203077331	tactile	left	left	tactile	NA	247.966433351	FALSE	FALSE	FALSE	FALSE	TRUE	0	FALSE	TRUE
p02	2015	06	24	14	55	m	21	r	6.90338989301	1	147	0.582286866003	1.28009314521	visual	right	right	visual	NA	256.803609431	FALSE	FALSE	FALSE	FALSE	TRUE	0	FALSE	TRUE
p02	2015	06	24	14	55	m	21	r	6.90338989301	1	148	0.411126717983	1.26483960113	tactile	right	left	visual	NA	386.893226532	FALSE	FALSE	FALSE	FALSE	TRUE	0	FALSE	TRUE
p02	2015	06	24	14	55	m	21	r	6.90338989301	1	149	0.415262769995	1.3669944068	visual	left	left	tactile	NA	197.199500893	FALSE	FALSE	FALSE	FALSE	TRUE	0	FALSE	TRUE
p02	2015	06	24	14	55	m	21	r	6.90338989301	1	150	65.499101124	0.676314369232	tactile	right	left	visual	NA	246.531210432	FALSE	FALSE	FALSE	FALSE	FALSE	0	FALSE	FALSE
p02	2015	06	24	14	55	m	21	r	6.90338989301	1	151	9.00093344098	1.02504640662	tactile	right	catch	tactile	NA	NA	FALSE	FALSE	FALSE	FALSE	FALSE	0	FALSE	FALSE
p02	2015	06	24	14	55	m	21	r	6.90338989301	1	152	7.11788169498	1.25999784363	tactile	left	right	visual	NA	283.918598027	FALSE	FALSE	FALSE	FALSE	FALSE	0	FALSE	FALSE
p02	2015	06	24	14	55	m	21	r	6.90338989301	1	153	5.67964653799	0.723382995624	visual	left	catch	visual	NA	NA	FALSE	FALSE	FALSE	FALSE	FALSE	0	FALSE	FALSE
p02	2015	06	24	14	55	m	21	r	6.90338989301	1	154	14.722979899	0.570659637142	visual	left	left	visual	NA	333.367122541	FALSE	FALSE	FALSE	FALSE	FALSE	0	FALSE	FALSE
p02	2015	06	24	14	55	m	21	r	6.90338989301	1	155	0.807808637008	0.861793722468	visual	left	right	tactile	NA	208.846759197	FALSE	FALSE	FALSE	FALSE	TRUE	0	FALSE	TRUE
p02	2015	06	24	14	55	m	21	r	6.90338989301	1	156	0.443533172016	1.07781039675	tactile	right	right	visual	NA	257.461982896	FALSE	FALSE	FALSE	FALSE	FALSE	0	FALSE	FALSE
p02	2015	06	24	14	55	m	21	r	6.90338989301	1	157	0.54276370001	0.504625947668	tactile	right	left	visual	NA	323.64291398	FALSE	FALSE	FALSE	FALSE	FALSE	0	FALSE	FALSE
p02	2015	06	24	14	55	m	21	r	6.90338989301	1	158	0.479245074996	1.45015207562	tactile	left	left	tactile	NA	219.515434059	FALSE	FALSE	FALSE	FALSE	FALSE	0	FALSE	FALSE
p02	2015	06	24	14	55	m	21	r	6.90338989301	1	159	0.426224837982	1.17880904674	tactile	right	left	tactile	NA	220.021170913	FALSE	FALSE	FALSE	FALSE	FALSE	0	FALSE	FALSE
p02	2015	06	24	14	55	m	21	r	6.90338989301	1	160	2.596597122	0.521163473826	visual	right	left	tactile	NA	190.918882843	FALSE	FALSE	FALSE	FALSE	FALSE	0	FALSE	FALSE
p02	2015	06	24	14	55	m	21	r	42.851357119	2	1	86.081965924	1.48174820229	tactile	right	right	visual	voice	NA	TRUE	FALSE	FALSE	FALSE	FALSE	0	FALSE	FALSE
p02	2015	06	24	14	55	m	21	r	42.851357119	2	2	1.35088228501	0.673469766516	tactile	left	right	tactile	NA	198.536120151	FALSE	FALSE	FALSE	FALSE	FALSE	0	FALSE	FALSE
p02	2015	06	24	14	55	m	21	r	42.851357119	2	3	0.49321007001	1.37250023387	visual	right	catch	tactile	NA	NA	FALSE	FALSE	FALSE	FALSE	FALSE	0	FALSE	FALSE
p02	2015	06	24	14	55	m	21	r	42.851357119	2	4	0.507074204012	1.31970853359	tactile	left	right	tactile	NA	82.0981410798	FALSE	FALSE	FALSE	FALSE	TRUE	0	FALSE	TRUE
p02	2015	06	24	14	55	m	21	r	42.851357119	2	5	0.41143637101	1.47203907142	tactile	right	right	visual	NA	244.294898264	FALSE	FALSE	FALSE	FALSE	TRUE	0	FALSE	TRUE
p02	2015	06	24	14	55	m	21	r	42.851357119	2	6	2.35357123901	0.762386628396	tactile	left	right	tactile	NA	189.77449325	FALSE	FALSE	FALSE	FALSE	TRUE	0	FALSE	TRUE
p02	2015	06	24	14	55	m	21	r	42.851357119	2	7	0.57845261402	1.14282119031	tactile	right	right	visual	NA	100.158737332	FALSE	FALSE	FALSE	FALSE	TRUE	0	FALSE	FALSE
p02	2015	06	24	14	55	m	21	r	42.851357119	2	8	2.55423207203	1.22621807802	tactile	left	left	visual	NA	313.472297625	FALSE	FALSE	FALSE	FALSE	TRUE	0	FALSE	TRUE
p02	2015	06	24	14	55	m	21	r	42.851357119	2	9	0.962524300994	1.21074041744	tactile	left	left	visual	NA	289.434267237	FALSE	FALSE	FALSE	FALSE	FALSE	0	FALSE	FALSE
p02	2015	06	24	14	55	m	21	r	42.851357119	2	10	1.811177639	1.24747892695	visual	right	left	visual	NA	304.307353712	FALSE	FALSE	FALSE	FALSE	FALSE	0	FALSE	FALSE
p02	2015	06	24	14	55	m	21	r	42.851357119	2	11	0.791863983002	1.03033016508	tactile	right	left	tactile	NA	92.9614995839	FALSE	FALSE	FALSE	FALSE	TRUE	0	FALSE	TRUE
p02	2015	06	24	14	55	m	21	r	42.851357119	2	12	0.588303631986	1.19440562997	tactile	right	left	visual	voice	NA	TRUE	FALSE	FALSE	FALSE	FALSE	0	FALSE	FALSE
p02	2015	06	24	14	55	m	21	r	42.851357119	2	13	0.755059646006	0.689240655139	visual	left	right	visual	NA	288.729377527	FALSE	FALSE	FALSE	FALSE	FALSE	0	FALSE	FALSE
p02	2015	06	24	14	55	m	21	r	42.851357119	2	14	0.760492002999	0.684882957367	visual	right	left	tactile	NA	209.693506302	FALSE	FALSE	FALSE	FALSE	FALSE	0	FALSE	FALSE
p02	2015	06	24	14	55	m	21	r	42.851357119	2	15	0.526360340999	0.787942651357	tactile	left	left	visual	NA	139.305331308	FALSE	FALSE	FALSE	FALSE	TRUE	0	FALSE	FALSE
p02	2015	06	24	14	55	m	21	r	42.851357119	2	16	0.404149804992	1.12025954032	visual	right	left	visual	NA	80.117967329	FALSE	FALSE	FALSE	FALSE	TRUE	0	FALSE	TRUE
p02	2015	06	24	14	55	m	21	r	42.851357119	2	17	2.56787517702	0.707002026769	visual	left	right	tactile	NA	239.966495894	FALSE	FALSE	FALSE	FALSE	FALSE	0	FALSE	FALSE
p02	2015	06	24	14	55	m	21	r	42.851357119	2	18	0.67299820701	0.864331177442	visual	left	left	visual	NA	233.154618239	FALSE	FALSE	FALSE	FALSE	TRUE	0	FALSE	FALSE
p02	2015	06	24	14	55	m	21	r	42.851357119	2	19	0.728332484985	1.40706647265	visual	right	left	tactile	NA	218.291608006	FALSE	FALSE	FALSE	FALSE	TRUE	0	FALSE	TRUE
p02	2015	06	24	14	55	m	21	r	42.851357119	2	20	0.825687574019	1.47552820549	visual	right	right	tactile	NA	255.046397186	FALSE	FALSE	FALSE	FALSE	TRUE	0	FALSE	TRUE
p02	2015	06	24	14	55	m	21	r	42.851357119	2	21	0.788548925018	0.57911035055	visual	right	right	visual	NA	314.298095123	FALSE	FALSE	FALSE	FALSE	FALSE	0	FALSE	FALSE
p02	2015	06	24	14	55	m	21	r	42.851357119	2	22	0.671105561982	1.0188726292	visual	left	right	tactile	NA	193.619436439	FALSE	FALSE	FALSE	FALSE	TRUE	0	FALSE	TRUE
p02	2015	06	24	14	55	m	21	r	42.851357119	2	23	0.775701592996	1.22549999486	tactile	left	right	visual	NA	223.861267819	FALSE	FALSE	FALSE	FALSE	TRUE	0	FALSE	TRUE
p02	2015	06	24	14	55	m	21	r	42.851357119	2	24	0.688367116003	1.35891123677	visual	left	left	visual	NA	228.156279889	FALSE	FALSE	FALSE	FALSE	FALSE	0	FALSE	FALSE
p02	2015	06	24	14	55	m	21	r	42.851357119	2	25	0.566259872983	0.50125242928	visual	right	catch	visual	NA	330.792006396	FALSE	FALSE	FALSE	FALSE	TRUE	0	FALSE	TRUE
p02	2015	06	24	14	55	m	21	r	42.851357119	2	26	0.742077044997	1.35953446206	tactile	right	left	visual	NA	48.989603587	FALSE	FALSE	FALSE	FALSE	TRUE	0	FALSE	FALSE
p02	2015	06	24	14	55	m	21	r	42.851357119	2	27	0.570140399999	0.97730539209	visual	left	right	visual	NA	284.400986566	FALSE	FALSE	FALSE	FALSE	TRUE	0	FALSE	FALSE
p02	2015	06	24	14	55	m	21	r	42.851357119	2	28	5.40448911101	1.21670901438	tactile	left	left	visual	NA	299.21235831	FALSE	FALSE	FALSE	FALSE	FALSE	0	FALSE	FALSE
p02	2015	06	24	14	55	m	21	r	42.851357119	2	29	0.680214011983	0.880643826435	tactile	right	left	tactile	NA	321.058669215	FALSE	FALSE	FALSE	FALSE	TRUE	0	FALSE	FALSE
p02	2015	06	24	14	55	m	21	r	42.851357119	2	30	0.638162226009	1.28045658916	tactile	left	left	tactile	NA	182.597126492	FALSE	FALSE	FALSE	FALSE	TRUE	0	FALSE	TRUE
p02	2015	06	24	14	55	m	21	r	42.851357119	2	31	4.04831039399	0.635040406997	tactile	right	right	visual	NA	231.323134649	FALSE	FALSE	FALSE	FALSE	FALSE	0	FALSE	FALSE
p02	2015	06	24	14	55	m	21	r	42.851357119	2	32	1.16730043199	0.81916641607	visual	left	left	tactile	NA	170.199799613	FALSE	FALSE	FALSE	FALSE	FALSE	0	FALSE	FALSE
p02	2015	06	24	14	55	m	21	r	42.851357119	2	33	0.937498407991	0.834606011433	visual	left	left	visual	NA	222.389033239	FALSE	FALSE	FALSE	FALSE	TRUE	0	FALSE	TRUE
p02	2015	06	24	14	55	m	21	r	42.851357119	2	34	0.957564836979	1.06969427231	visual	left	catch	tactile	NA	81.2669073639	FALSE	FALSE	FALSE	FALSE	TRUE	0	FALSE	TRUE
p02	2015	06	24	14	55	m	21	r	42.851357119	2	35	2.89690025299	1.02024553159	visual	right	left	tactile	NA	199.40039207	FALSE	FALSE	FALSE	FALSE	FALSE	0	FALSE	FALSE
p02	2015	06	24	14	55	m	21	r	42.851357119	2	36	1.29391732498	0.741804773273	visual	left	right	visual	NA	243.68476338	FALSE	FALSE	FALSE	FALSE	FALSE	0	FALSE	FALSE
p02	2015	06	24	14	55	m	21	r	42.851357119	2	37	5.60624643901	1.07424583724	visual	right	right	visual	NA	276.306071406	FALSE	FALSE	FALSE	FALSE	TRUE	0	FALSE	FALSE
p02	2015	06	24	14	55	m	21	r	42.851357119	2	38	0.948933019012	0.524978988023	tactile	right	left	visual	NA	298.85769065	FALSE	FALSE	FALSE	FALSE	FALSE	0	FALSE	FALSE
p02	2015	06	24	14	55	m	21	r	42.851357119	2	39	3.581384733	0.737227811191	tactile	left	left	visual	NA	248.248599499	FALSE	FALSE	FALSE	FALSE	FALSE	0	FALSE	FALSE
p02	2015	06	24	14	55	m	21	r	42.851357119	2	40	4.44044305	0.953573185967	tactile	right	right	tactile	NA	179.72799766	FALSE	FALSE	FALSE	FALSE	TRUE	0	FALSE	TRUE
p02	2015	06	24	14	55	m	21	r	6.470147199	2	41	2.01412083601	1.16636980308	tactile	right	left	visual	NA	294.446497574	FALSE	FALSE	FALSE	FALSE	FALSE	0	FALSE	FALSE
p02	2015	06	24	14	55	m	21	r	6.470147199	2	42	16.612803027	1.17336099787	visual	left	left	tactile	NA	164.139436791	FALSE	FALSE	FALSE	FALSE	TRUE	0	FALSE	TRUE
p02	2015	06	24	14	55	m	21	r	6.470147199	2	43	1.02073955999	0.945932303796	tactile	right	right	tactile	NA	244.274099881	FALSE	FALSE	FALSE	FALSE	FALSE	0	FALSE	FALSE
p02	2015	06	24	14	55	m	21	r	6.470147199	2	44	0.621626813983	0.647584620425	tactile	left	right	visual	NA	265.541097237	FALSE	FALSE	FALSE	FALSE	TRUE	0	FALSE	TRUE
p02	2015	06	24	14	55	m	21	r	6.470147199	2	45	0.817340164998	0.634065542028	visual	left	left	visual	NA	280.655352632	FALSE	FALSE	FALSE	FALSE	FALSE	0	FALSE	FALSE
p02	2015	06	24	14	55	m	21	r	6.470147199	2	46	3.01159585698	0.94782532809	visual	right	left	visual	NA	238.774094585	FALSE	FALSE	FALSE	FALSE	FALSE	0	FALSE	FALSE
p02	2015	06	24	14	55	m	21	r	6.470147199	2	47	5.036128949	1.20936294768	visual	right	left	tactile	NA	250.303854991	FALSE	FALSE	FALSE	FALSE	FALSE	0	FALSE	FALSE
p02	2015	06	24	14	55	m	21	r	6.470147199	2	48	20.587424768	0.713608508849	tactile	right	left	visual	NA	264.424536814	FALSE	FALSE	FALSE	FALSE	FALSE	0	FALSE	FALSE
p02	2015	06	24	14	55	m	21	r	6.470147199	2	49	0.691348655993	1.12854182329	tactile	right	left	visual	NA	247.765333392	FALSE	FALSE	FALSE	FALSE	FALSE	0	FALSE	FALSE
p02	2015	06	24	14	55	m	21	r	6.470147199	2	50	0.775844413001	1.08697597327	tactile	right	left	visual	NA	211.872675369	FALSE	FALSE	FALSE	FALSE	FALSE	0	FALSE	FALSE
p02	2015	06	24	14	55	m	21	r	6.470147199	2	51	0.560715750005	1.1063605992	tactile	left	right	visual	voice	NA	TRUE	FALSE	FALSE	FALSE	FALSE	0	FALSE	FALSE
p02	2015	06	24	14	55	m	21	r	6.470147199	2	52	1.544197743	0.865722800202	visual	right	left	tactile	NA	195.143435471	FALSE	FALSE	FALSE	FALSE	TRUE	0	FALSE	TRUE
p02	2015	06	24	14	55	m	21	r	6.470147199	2	53	0.680026093003	0.719744704757	tactile	left	right	tactile	NA	170.752798906	FALSE	FALSE	FALSE	FALSE	FALSE	0	FALSE	FALSE
p02	2015	06	24	14	55	m	21	r	6.470147199	2	54	0.506471210014	1.12807070483	tactile	left	right	visual	NA	293.125059834	FALSE	FALSE	FALSE	FALSE	FALSE	0	FALSE	FALSE
p02	2015	06	24	14	55	m	21	r	6.470147199	2	55	2.70155565601	1.13718399063	tactile	left	left	tactile	NA	272.706276039	FALSE	FALSE	FALSE	FALSE	TRUE	0	FALSE	FALSE
p02	2015	06	24	14	55	m	21	r	6.470147199	2	56	3.23368381002	1.06272160732	visual	left	left	visual	NA	277.501061326	FALSE	FALSE	FALSE	FALSE	TRUE	0	FALSE	TRUE
p02	2015	06	24	14	55	m	21	r	6.470147199	2	57	1.15520493599	0.958743339658	tactile	left	right	tactile	NA	230.142680986	FALSE	FALSE	FALSE	FALSE	FALSE	0	FALSE	FALSE
p02	2015	06	24	14	55	m	21	r	6.470147199	2	58	3.72374211001	1.1565389628	visual	right	right	tactile	NA	144.142650883	FALSE	FALSE	FALSE	FALSE	TRUE	0	FALSE	TRUE
p02	2015	06	24	14	55	m	21	r	6.470147199	2	59	0.629216494999	1.34190280695	visual	left	left	visual	NA	261.22211272	FALSE	FALSE	FALSE	FALSE	TRUE	0	FALSE	FALSE
p02	2015	06	24	14	55	m	21	r	6.470147199	2	60	0.731946157	1.3328732059	tactile	left	left	visual	NA	213.902358781	FALSE	FALSE	FALSE	FALSE	TRUE	0	FALSE	TRUE
p02	2015	06	24	14	55	m	21	r	6.470147199	2	61	0.911649455025	1.40586203188	visual	right	right	visual	NA	217.536885757	FALSE	FALSE	FALSE	FALSE	TRUE	0	FALSE	TRUE
p02	2015	06	24	14	55	m	21	r	6.470147199	2	62	0.685736732994	0.686969237109	tactile	right	right	tactile	NA	187.326479558	FALSE	FALSE	FALSE	FALSE	FALSE	0	FALSE	FALSE
p02	2015	06	24	14	55	m	21	r	6.470147199	2	63	0.603194291994	1.0314621116	visual	left	catch	visual	NA	80.5108010536	FALSE	FALSE	FALSE	FALSE	TRUE	0	FALSE	TRUE
p02	2015	06	24	14	55	m	21	r	6.470147199	2	64	0.483235866006	1.28930907653	tactile	right	catch	visual	NA	NA	FALSE	FALSE	FALSE	FALSE	TRUE	0	FALSE	TRUE
p02	2015	06	24	14	55	m	21	r	6.470147199	2	65	0.759938656003	0.521895837377	visual	right	right	tactile	NA	295.206051291	FALSE	FALSE	FALSE	FALSE	TRUE	0	FALSE	TRUE
p02	2015	06	24	14	55	m	21	r	6.470147199	2	66	1.50673579899	0.615304734954	tactile	right	right	visual	NA	255.30200568	FALSE	FALSE	FALSE	FALSE	TRUE	0	FALSE	FALSE
p02	2015	06	24	14	55	m	21	r	6.470147199	2	67	0.685071891989	0.996337069654	tactile	left	right	tactile	NA	117.403704993	FALSE	FALSE	FALSE	FALSE	TRUE	0	FALSE	TRUE
p02	2015	06	24	14	55	m	21	r	6.470147199	2	68	0.632347363018	1.31332216257	visual	right	right	tactile	voice	NA	TRUE	FALSE	FALSE	FALSE	TRUE	0	FALSE	FALSE
p02	2015	06	24	14	55	m	21	r	6.470147199	2	69	1.009408413	0.736440732033	tactile	right	left	visual	NA	298.38688462	FALSE	FALSE	FALSE	FALSE	TRUE	0	FALSE	TRUE
p02	2015	06	24	14	55	m	21	r	6.470147199	2	70	0.802957031992	0.666284868452	visual	right	left	tactile	NA	220.208232204	FALSE	FALSE	FALSE	FALSE	FALSE	0	FALSE	FALSE
p02	2015	06	24	14	55	m	21	r	6.470147199	2	71	0.541452580015	1.04047623449	visual	left	right	visual	NA	86.2713011738	FALSE	FALSE	FALSE	FALSE	TRUE	0	FALSE	TRUE
p02	2015	06	24	14	55	m	21	r	6.470147199	2	72	0.474101444997	0.520145685109	tactile	right	right	tactile	NA	184.03444154	FALSE	FALSE	FALSE	FALSE	TRUE	0	FALSE	FALSE
p02	2015	06	24	14	55	m	21	r	6.470147199	2	73	0.729526044015	0.856900222471	visual	right	right	tactile	NA	138.520342181	FALSE	FALSE	FALSE	FALSE	TRUE	0	FALSE	TRUE
p02	2015	06	24	14	55	m	21	r	6.470147199	2	74	0.660448126	0.978568297693	tactile	left	catch	visual	NA	NA	FALSE	FALSE	FALSE	FALSE	TRUE	0	FALSE	TRUE
p02	2015	06	24	14	55	m	21	r	6.470147199	2	75	0.767765581986	0.629027813018	visual	left	left	visual	NA	322.267155658	FALSE	FALSE	FALSE	FALSE	FALSE	0	FALSE	FALSE
p02	2015	06	24	14	55	m	21	r	6.470147199	2	76	0.820070305985	0.758569106179	visual	left	left	tactile	NA	252.867769508	FALSE	FALSE	FALSE	FALSE	TRUE	0	FALSE	FALSE
p02	2015	06	24	14	55	m	21	r	6.470147199	2	77	0.872234690993	1.44034818246	visual	left	right	visual	NA	282.2665032	FALSE	FALSE	FALSE	FALSE	FALSE	0	FALSE	FALSE
p02	2015	06	24	14	55	m	21	r	6.470147199	2	78	1.53896041101	1.04628275247	tactile	left	right	visual	NA	304.502509185	FALSE	FALSE	FALSE	FALSE	TRUE	0	FALSE	FALSE
p02	2015	06	24	14	55	m	21	r	6.470147199	2	79	0.771596142004	1.15699534891	tactile	left	left	visual	NA	154.672211764	FALSE	FALSE	FALSE	FALSE	FALSE	0	FALSE	FALSE
p02	2015	06	24	14	55	m	21	r	6.470147199	2	80	0.849488932989	1.02800971321	tactile	left	right	tactile	NA	178.66019145	FALSE	FALSE	FALSE	FALSE	TRUE	0	FALSE	TRUE
p02	2015	06	24	14	55	m	21	r	11.375769686	2	81	2.85988831101	0.597768838048	visual	left	left	tactile	NA	218.18526162	FALSE	FALSE	FALSE	FALSE	FALSE	0	FALSE	FALSE
p02	2015	06	24	14	55	m	21	r	11.375769686	2	82	0.648442766018	0.564534330074	visual	right	right	visual	NA	235.357217607	FALSE	FALSE	FALSE	FALSE	FALSE	0	FALSE	FALSE
p02	2015	06	24	14	55	m	21	r	11.375769686	2	83	0.761866875982	1.37762998688	tactile	left	catch	tactile	NA	400.140110811	FALSE	FALSE	FALSE	FALSE	FALSE	0	FALSE	FALSE
p02	2015	06	24	14	55	m	21	r	11.375769686	2	84	4.56433989501	1.31200798109	tactile	left	catch	visual	NA	NA	FALSE	FALSE	FALSE	FALSE	TRUE	0	FALSE	TRUE
p02	2015	06	24	14	55	m	21	r	11.375769686	2	85	0.890712716006	0.526541913559	tactile	right	left	tactile	NA	198.977477092	FALSE	FALSE	FALSE	FALSE	FALSE	0	FALSE	FALSE
p02	2015	06	24	14	55	m	21	r	11.375769686	2	86	3.574378302	1.00676094535	visual	left	left	visual	NA	392.052091309	FALSE	FALSE	FALSE	FALSE	TRUE	0	FALSE	TRUE
p02	2015	06	24	14	55	m	21	r	11.375769686	2	87	0.721568731999	0.633886813161	visual	right	right	tactile	NA	239.251571533	FALSE	FALSE	FALSE	FALSE	TRUE	0	FALSE	TRUE
p02	2015	06	24	14	55	m	21	r	11.375769686	2	88	0.576791664003	0.841746349982	visual	left	right	tactile	NA	214.763509663	FALSE	FALSE	FALSE	FALSE	FALSE	0	FALSE	FALSE
p02	2015	06	24	14	55	m	21	r	11.375769686	2	89	2.849018671	0.991230789387	tactile	right	left	visual	NA	257.682372263	FALSE	FALSE	FALSE	FALSE	FALSE	0	FALSE	FALSE
p02	2015	06	24	14	55	m	21	r	11.375769686	2	90	0.678060859005	0.923056056146	visual	right	right	visual	NA	210.499947512	FALSE	FALSE	FALSE	FALSE	TRUE	0	FALSE	TRUE
p02	2015	06	24	14	55	m	21	r	11.375769686	2	91	6.18646141901	1.10684411317	visual	left	left	tactile	NA	191.028305504	FALSE	FALSE	FALSE	FALSE	FALSE	0	FALSE	FALSE
p02	2015	06	24	14	55	m	21	r	11.375769686	2	92	0.697182928998	1.21374099032	tactile	left	right	visual	NA	254.375410324	FALSE	FALSE	FALSE	FALSE	TRUE	0	FALSE	TRUE
p02	2015	06	24	14	55	m	21	r	11.375769686	2	93	0.546796420997	1.18964287861	tactile	right	right	visual	NA	287.045113044	FALSE	FALSE	FALSE	FALSE	TRUE	0	FALSE	TRUE
p02	2015	06	24	14	55	m	21	r	11.375769686	2	94	0.760795721988	0.641268506193	tactile	right	left	tactile	NA	248.080655467	FALSE	FALSE	FALSE	FALSE	TRUE	0	FALSE	TRUE
p02	2015	06	24	14	55	m	21	r	11.375769686	2	95	0.527711290983	0.505355530996	tactile	right	catch	tactile	NA	227.51878266	FALSE	FALSE	FALSE	FALSE	TRUE	0	FALSE	TRUE
p02	2015	06	24	14	55	m	21	r	11.375769686	2	96	5.96046404901	1.40372242477	visual	left	left	tactile	NA	182.159017888	FALSE	FALSE	FALSE	FALSE	FALSE	0	FALSE	FALSE
p02	2015	06	24	14	55	m	21	r	11.375769686	2	97	7.83438821402	1.35567863373	visual	left	left	visual	NA	351.184243918	FALSE	FALSE	FALSE	FALSE	FALSE	0	FALSE	FALSE
p02	2015	06	24	14	55	m	21	r	11.375769686	2	98	136.711998641	0.851792735491	tactile	left	left	visual	voice	NA	TRUE	FALSE	FALSE	FALSE	TRUE	0	FALSE	FALSE
p02	2015	06	24	14	55	m	21	r	11.375769686	2	99	0.702749852993	0.889365320589	tactile	left	left	tactile	NA	217.467238079	FALSE	FALSE	FALSE	FALSE	FALSE	0	FALSE	FALSE
p02	2015	06	24	14	55	m	21	r	11.375769686	2	100	0.917245951016	1.44811223931	tactile	left	left	tactile	voice	NA	TRUE	FALSE	FALSE	FALSE	TRUE	0	FALSE	FALSE
p02	2015	06	24	14	55	m	21	r	11.375769686	2	101	3.35742038599	1.07729249392	tactile	right	right	tactile	NA	206.521052751	FALSE	FALSE	FALSE	FALSE	FALSE	0	FALSE	FALSE
p02	2015	06	24	14	55	m	21	r	11.375769686	2	102	0.648668609996	0.717248920022	visual	right	left	visual	NA	266.006199643	FALSE	FALSE	FALSE	FALSE	TRUE	0	FALSE	FALSE
p02	2015	06	24	14	55	m	21	r	11.375769686	2	103	0.682239421003	0.545029340809	tactile	right	right	visual	NA	244.362227852	FALSE	FALSE	FALSE	FALSE	TRUE	0	FALSE	TRUE
p02	2015	06	24	14	55	m	21	r	11.375769686	2	104	2.51341482101	1.11533033188	visual	right	right	tactile	NA	251.343793818	FALSE	TRUE	FALSE	FALSE	TRUE	0	FALSE	FALSE
p02	2015	06	24	14	55	m	21	r	11.375769686	2	105	2.74949548399	1.06400876071	visual	left	right	tactile	NA	260.289822967	FALSE	FALSE	FALSE	FALSE	TRUE	0	FALSE	TRUE
p02	2015	06	24	14	55	m	21	r	11.375769686	2	106	0.890704171994	0.876022784094	tactile	left	catch	tactile	NA	NA	FALSE	FALSE	FALSE	FALSE	TRUE	0	FALSE	TRUE
p02	2015	06	24	14	55	m	21	r	11.375769686	2	107	0.798367534997	0.780321294328	visual	right	catch	visual	NA	409.067964327	FALSE	FALSE	FALSE	FALSE	TRUE	0	FALSE	TRUE
p02	2015	06	24	14	55	m	21	r	11.375769686	2	108	0.816622577986	1.13508400199	tactile	right	right	tactile	NA	290.086447669	FALSE	FALSE	FALSE	FALSE	TRUE	0	FALSE	FALSE
p02	2015	06	24	14	55	m	21	r	11.375769686	2	109	0.666728582	1.27483474522	tactile	right	left	tactile	NA	257.891429443	FALSE	FALSE	FALSE	FALSE	TRUE	0	FALSE	FALSE
p02	2015	06	24	14	55	m	21	r	11.375769686	2	110	0.559654839017	1.03687878487	visual	right	right	tactile	NA	348.391973763	FALSE	FALSE	FALSE	TRUE	TRUE	0	FALSE	TRUE
p02	2015	06	24	14	55	m	21	r	11.375769686	2	111	0.492502216017	0.724936639745	visual	right	right	visual	voice	NA	TRUE	FALSE	FALSE	FALSE	TRUE	0	FALSE	FALSE
p02	2015	06	24	14	55	m	21	r	11.375769686	2	112	1.06695524001	0.801102788101	visual	right	left	visual	NA	235.529362544	FALSE	FALSE	FALSE	FALSE	TRUE	0	FALSE	TRUE
p02	2015	06	24	14	55	m	21	r	11.375769686	2	113	0.575108844001	1.40729336268	tactile	right	right	visual	NA	289.988359989	FALSE	FALSE	FALSE	FALSE	FALSE	0	FALSE	FALSE
p02	2015	06	24	14	55	m	21	r	11.375769686	2	114	0.664986864984	0.640681383889	tactile	right	right	tactile	NA	316.184703755	FALSE	FALSE	FALSE	FALSE	TRUE	0	FALSE	FALSE
p02	2015	06	24	14	55	m	21	r	11.375769686	2	115	0.791525890992	1.11969465114	visual	right	left	visual	NA	262.671246543	FALSE	FALSE	FALSE	FALSE	TRUE	0	FALSE	TRUE
p02	2015	06	24	14	55	m	21	r	11.375769686	2	116	0.608190163999	1.19490059267	tactile	left	left	tactile	NA	181.324418983	FALSE	FALSE	FALSE	FALSE	TRUE	0	FALSE	TRUE
p02	2015	06	24	14	55	m	21	r	11.375769686	2	117	0.621624981984	0.641588477377	visual	right	left	visual	NA	229.569766263	FALSE	FALSE	FALSE	FALSE	FALSE	0	FALSE	FALSE
p02	2015	06	24	14	55	m	21	r	11.375769686	2	118	0.518961799011	0.784184019753	visual	right	right	visual	NA	233.028041926	FALSE	FALSE	FALSE	FALSE	TRUE	0	FALSE	FALSE
p02	2015	06	24	14	55	m	21	r	11.375769686	2	119	0.466766957979	1.33405596112	tactile	left	right	visual	NA	152.44216955	FALSE	FALSE	FALSE	FALSE	TRUE	0	FALSE	FALSE
p02	2015	06	24	14	55	m	21	r	11.375769686	2	120	0.427984793991	0.82173907784	visual	left	right	tactile	NA	240.341278841	FALSE	FALSE	FALSE	FALSE	TRUE	0	FALSE	TRUE
p02	2015	06	24	14	55	m	21	r	7.59741993799	2	121	1.15154416999	0.844101280784	tactile	left	right	tactile	NA	190.659232874	FALSE	FALSE	FALSE	FALSE	FALSE	0	FALSE	FALSE
p02	2015	06	24	14	55	m	21	r	7.59741993799	2	122	0.587481235998	0.796010249966	tactile	right	right	tactile	NA	38.6812787037	FALSE	FALSE	FALSE	FALSE	FALSE	0	FALSE	FALSE
p02	2015	06	24	14	55	m	21	r	7.59741993799	2	123	0.424536908977	1.46978744877	visual	right	right	tactile	NA	182.016160921	FALSE	FALSE	FALSE	FALSE	TRUE	0	FALSE	TRUE
p02	2015	06	24	14	55	m	21	r	7.59741993799	2	124	0.524150507001	1.03791735142	tactile	left	left	tactile	NA	201.014809223	FALSE	FALSE	FALSE	FALSE	TRUE	0	FALSE	TRUE
p02	2015	06	24	14	55	m	21	r	7.59741993799	2	125	0.570905082015	0.633431961021	visual	right	left	tactile	NA	179.568033636	FALSE	FALSE	FALSE	FALSE	TRUE	0	FALSE	TRUE
p02	2015	06	24	14	55	m	21	r	7.59741993799	2	126	0.534334118973	0.68773225368	tactile	left	left	tactile	NA	172.40446998	FALSE	FALSE	FALSE	FALSE	TRUE	0	FALSE	TRUE
p02	2015	06	24	14	55	m	21	r	7.59741993799	2	127	0.550254896021	0.662185095079	tactile	left	right	visual	NA	209.484074585	FALSE	FALSE	FALSE	FALSE	TRUE	0	FALSE	TRUE
p02	2015	06	24	14	55	m	21	r	7.59741993799	2	128	0.502928809001	0.586599984968	tactile	right	left	tactile	NA	171.008602716	FALSE	FALSE	FALSE	FALSE	TRUE	0	FALSE	TRUE
p02	2015	06	24	14	55	m	21	r	7.59741993799	2	129	0.491887595999	1.07327918386	tactile	left	right	tactile	NA	140.248714801	FALSE	FALSE	FALSE	FALSE	TRUE	0	FALSE	FALSE
p02	2015	06	24	14	55	m	21	r	7.59741993799	2	130	0.461639432004	1.09602825647	visual	left	right	visual	NA	223.958966206	FALSE	FALSE	FALSE	FALSE	TRUE	0	FALSE	TRUE
p02	2015	06	24	14	55	m	21	r	7.59741993799	2	131	0.413626736001	0.712458350721	visual	right	left	tactile	NA	186.033585953	FALSE	FALSE	FALSE	FALSE	TRUE	0	FALSE	TRUE
p02	2015	06	24	14	55	m	21	r	7.59741993799	2	132	0.466402624006	1.26083885041	tactile	right	catch	tactile	NA	208.664925274	FALSE	FALSE	FALSE	FALSE	TRUE	0	FALSE	TRUE
p02	2015	06	24	14	55	m	21	r	7.59741993799	2	133	0.545744550007	1.01225357073	tactile	right	right	tactile	NA	177.234657924	FALSE	FALSE	FALSE	FALSE	FALSE	0	FALSE	FALSE
p02	2015	06	24	14	55	m	21	r	7.59741993799	2	134	0.468477963994	0.708546809233	visual	right	left	visual	NA	241.020684422	FALSE	FALSE	FALSE	FALSE	TRUE	0	FALSE	TRUE
p02	2015	06	24	14	55	m	21	r	7.59741993799	2	135	0.400062914996	1.4955461441	tactile	right	left	tactile	voice	NA	TRUE	FALSE	FALSE	FALSE	TRUE	0	FALSE	FALSE
p02	2015	06	24	14	55	m	21	r	7.59741993799	2	136	0.481790849008	0.981070374123	visual	right	catch	tactile	NA	NA	FALSE	FALSE	FALSE	FALSE	TRUE	0	FALSE	TRUE
p02	2015	06	24	14	55	m	21	r	7.59741993799	2	137	0.586924231	1.16288687788	tactile	left	left	tactile	NA	289.387796802	FALSE	FALSE	FALSE	FALSE	FALSE	0	FALSE	FALSE
p02	2015	06	24	14	55	m	21	r	7.59741993799	2	138	1.82714552799	0.559026813089	visual	left	catch	visual	NA	NA	FALSE	FALSE	FALSE	FALSE	FALSE	0	FALSE	FALSE
p02	2015	06	24	14	55	m	21	r	7.59741993799	2	139	0.634337324998	1.00807878079	tactile	right	right	visual	NA	322.200918861	FALSE	FALSE	FALSE	FALSE	FALSE	0	FALSE	FALSE
p02	2015	06	24	14	55	m	21	r	7.59741993799	2	140	0.825005785999	0.553452856956	visual	left	right	tactile	NA	228.313583706	FALSE	FALSE	FALSE	FALSE	TRUE	0	FALSE	FALSE
p02	2015	06	24	14	55	m	21	r	7.59741993799	2	141	0.682743924001	1.35299229647	visual	left	right	tactile	NA	172.06820118	FALSE	FALSE	FALSE	FALSE	FALSE	0	FALSE	FALSE
p02	2015	06	24	14	55	m	21	r	7.59741993799	2	142	0.625613254	0.992443661694	visual	left	right	visual	NA	286.058766971	FALSE	FALSE	FALSE	FALSE	TRUE	0	FALSE	TRUE
p02	2015	06	24	14	55	m	21	r	7.59741993799	2	143	0.501761616993	1.46510105897	visual	left	left	tactile	NA	194.361105707	FALSE	FALSE	FALSE	FALSE	FALSE	0	FALSE	FALSE
p02	2015	06	24	14	55	m	21	r	7.59741993799	2	144	0.764110356016	1.33648635321	tactile	left	left	tactile	NA	183.668089448	FALSE	FALSE	FALSE	FALSE	TRUE	0	FALSE	FALSE
p02	2015	06	24	14	55	m	21	r	7.59741993799	2	145	0.672633077018	1.25993409627	tactile	right	left	tactile	NA	181.546190375	FALSE	FALSE	FALSE	FALSE	TRUE	0	FALSE	TRUE
p02	2015	06	24	14	55	m	21	r	7.59741993799	2	146	0.462302550994	1.02072377116	visual	left	right	tactile	NA	261.629298504	FALSE	FALSE	FALSE	FALSE	TRUE	0	FALSE	FALSE
p02	2015	06	24	14	55	m	21	r	7.59741993799	2	147	0.415435184987	0.660296393907	tactile	right	left	tactile	NA	233.931945753	FALSE	FALSE	FALSE	FALSE	TRUE	0	FALSE	TRUE
p02	2015	06	24	14	55	m	21	r	7.59741993799	2	148	0.433287563996	1.00354916554	visual	left	right	tactile	NA	188.15522315	FALSE	FALSE	FALSE	FALSE	TRUE	0	FALSE	TRUE
p02	2015	06	24	14	55	m	21	r	7.59741993799	2	149	0.413288559997	1.2955327599	visual	right	right	visual	NA	225.019034755	FALSE	FALSE	FALSE	FALSE	TRUE	0	FALSE	TRUE
p02	2015	06	24	14	55	m	21	r	7.59741993799	2	150	0.454315628012	1.29007859429	tactile	left	left	visual	NA	217.870463384	FALSE	FALSE	FALSE	FALSE	TRUE	0	FALSE	FALSE
p02	2015	06	24	14	55	m	21	r	7.59741993799	2	151	0.406481644983	0.775237293881	tactile	left	right	visual	NA	238.818952785	FALSE	FALSE	FALSE	FALSE	FALSE	0	FALSE	FALSE
p02	2015	06	24	14	55	m	21	r	7.59741993799	2	152	0.412292636	0.749123253961	visual	left	left	tactile	NA	254.469682724	FALSE	FALSE	FALSE	FALSE	TRUE	0	FALSE	TRUE
p02	2015	06	24	14	55	m	21	r	7.59741993799	2	153	0.410385295982	1.278376812	visual	left	right	visual	NA	215.630828665	FALSE	FALSE	FALSE	FALSE	TRUE	0	FALSE	TRUE
p02	2015	06	24	14	55	m	21	r	7.59741993799	2	154	0.406818090007	0.907709708388	visual	right	left	tactile	NA	199.785826291	FALSE	FALSE	FALSE	FALSE	TRUE	0	FALSE	FALSE
p02	2015	06	24	14	55	m	21	r	7.59741993799	2	155	0.47627762999	0.859714795589	visual	left	catch	tactile	NA	395.031330059	FALSE	FALSE	FALSE	FALSE	TRUE	0	FALSE	TRUE
p02	2015	06	24	14	55	m	21	r	7.59741993799	2	156	0.407343156985	0.801072103321	visual	left	right	visual	NA	233.72065532	FALSE	FALSE	FALSE	FALSE	TRUE	0	FALSE	FALSE
p02	2015	06	24	14	55	m	21	r	7.59741993799	2	157	0.450733851001	1.10038893313	tactile	right	catch	visual	NA	NA	FALSE	FALSE	FALSE	FALSE	TRUE	0	FALSE	TRUE
p02	2015	06	24	14	55	m	21	r	7.59741993799	2	158	0.905408287013	0.816499540627	visual	right	left	visual	NA	283.408811025	FALSE	FALSE	FALSE	FALSE	TRUE	0	FALSE	FALSE
p02	2015	06	24	14	55	m	21	r	7.59741993799	2	159	0.461434619996	0.763275215248	visual	right	right	visual	NA	258.397425408	FALSE	FALSE	FALSE	FALSE	TRUE	0	FALSE	FALSE
p02	2015	06	24	14	55	m	21	r	7.59741993799	2	160	0.506227003003	0.80596407582	visual	left	left	tactile	NA	242.357051844	FALSE	FALSE	FALSE	FALSE	TRUE	0	FALSE	FALSE
p02	2015	06	24	14	55	m	21	r	25.914002518	3	1	2.221230886	1.29070610868	visual	left	left	visual	NA	243.644934002	FALSE	FALSE	FALSE	FALSE	FALSE	0	FALSE	FALSE
p02	2015	06	24	14	55	m	21	r	25.914002518	3	2	0.472572044004	0.554856738034	visual	right	right	tactile	NA	236.869783635	FALSE	FALSE	FALSE	FALSE	FALSE	0	FALSE	FALSE
p02	2015	06	24	14	55	m	21	r	25.914002518	3	3	0.46403106401	0.794957274761	visual	right	right	tactile	NA	175.029828883	FALSE	FALSE	FALSE	FALSE	TRUE	0	FALSE	TRUE
p02	2015	06	24	14	55	m	21	r	25.914002518	3	4	0.425662214984	1.18769220907	tactile	left	right	visual	NA	372.7675236	FALSE	FALSE	FALSE	FALSE	TRUE	0	FALSE	TRUE
p02	2015	06	24	14	55	m	21	r	25.914002518	3	5	0.486806292	0.636040585295	tactile	right	right	visual	NA	401.256250392	FALSE	FALSE	FALSE	FALSE	FALSE	0	FALSE	FALSE
p02	2015	06	24	14	55	m	21	r	25.914002518	3	6	0.408918337984	1.18072090479	tactile	left	left	visual	NA	278.245881869	FALSE	FALSE	FALSE	FALSE	TRUE	0	FALSE	TRUE
p02	2015	06	24	14	55	m	21	r	25.914002518	3	7	0.439475013991	0.644739964042	tactile	right	right	visual	NA	244.524185633	FALSE	FALSE	FALSE	FALSE	FALSE	0	FALSE	FALSE
p02	2015	06	24	14	55	m	21	r	25.914002518	3	8	0.520604246005	1.0495939534	visual	right	left	visual	NA	235.826592252	FALSE	FALSE	FALSE	FALSE	FALSE	0	FALSE	FALSE
p02	2015	06	24	14	55	m	21	r	25.914002518	3	9	0.496132266999	0.59433025294	tactile	left	right	visual	NA	233.275444742	FALSE	FALSE	FALSE	FALSE	TRUE	0	FALSE	TRUE
p02	2015	06	24	14	55	m	21	r	25.914002518	3	10	0.419743006991	0.91917087106	tactile	left	left	visual	NA	221.89793858	FALSE	FALSE	FALSE	FALSE	TRUE	0	FALSE	TRUE
p02	2015	06	24	14	55	m	21	r	25.914002518	3	11	0.409090714005	0.888551697753	visual	left	left	tactile	NA	177.724145906	FALSE	FALSE	FALSE	FALSE	FALSE	0	FALSE	FALSE
p02	2015	06	24	14	55	m	21	r	25.914002518	3	12	0.412204452005	0.506466627689	visual	right	right	visual	NA	212.624399952	FALSE	FALSE	FALSE	FALSE	TRUE	0	FALSE	TRUE
p02	2015	06	24	14	55	m	21	r	25.914002518	3	13	0.407749642996	1.32087830862	tactile	right	right	visual	NA	245.088576048	FALSE	FALSE	FALSE	FALSE	TRUE	0	FALSE	TRUE
p02	2015	06	24	14	55	m	21	r	25.914002518	3	14	0.404868209996	1.09343838349	visual	left	right	visual	NA	132.803988177	FALSE	FALSE	FALSE	FALSE	TRUE	0	FALSE	TRUE
p02	2015	06	24	14	55	m	21	r	25.914002518	3	15	2.06799372201	1.41854613874	visual	right	right	visual	NA	332.125261921	FALSE	FALSE	FALSE	FALSE	TRUE	0	FALSE	TRUE
p02	2015	06	24	14	55	m	21	r	25.914002518	3	16	0.414071502979	1.00144680307	visual	left	right	tactile	NA	207.12050359	FALSE	FALSE	FALSE	FALSE	TRUE	0	FALSE	TRUE
p02	2015	06	24	14	55	m	21	r	25.914002518	3	17	0.40412829601	0.572334864741	visual	left	left	visual	NA	276.388941944	FALSE	FALSE	FALSE	FALSE	FALSE	0	FALSE	FALSE
p02	2015	06	24	14	55	m	21	r	25.914002518	3	18	0.404428604001	0.847980688863	tactile	right	left	visual	NA	174.510701821	FALSE	FALSE	FALSE	FALSE	TRUE	0	FALSE	FALSE
p02	2015	06	24	14	55	m	21	r	25.914002518	3	19	0.413893599994	1.14751757807	visual	right	left	tactile	NA	96.9808906084	FALSE	FALSE	FALSE	FALSE	TRUE	0	FALSE	FALSE
p02	2015	06	24	14	55	m	21	r	25.914002518	3	20	2.13457986902	0.777600699817	tactile	right	right	tactile	NA	226.09731686	FALSE	FALSE	FALSE	FALSE	FALSE	0	FALSE	FALSE
p02	2015	06	24	14	55	m	21	r	25.914002518	3	21	0.406757944002	0.571292147208	visual	right	left	tactile	NA	221.90059346	FALSE	FALSE	FALSE	FALSE	TRUE	0	FALSE	FALSE
p02	2015	06	24	14	55	m	21	r	25.914002518	3	22	0.409668003005	1.3881501225	tactile	left	right	tactile	NA	202.577932156	FALSE	FALSE	FALSE	FALSE	TRUE	0	FALSE	TRUE
p02	2015	06	24	14	55	m	21	r	25.914002518	3	23	0.457397362014	1.30011090257	visual	right	left	tactile	NA	188.033399085	FALSE	FALSE	FALSE	FALSE	FALSE	0	FALSE	FALSE
p02	2015	06	24	14	55	m	21	r	25.914002518	3	24	0.471756316023	0.693937970504	tactile	left	left	tactile	NA	231.619434169	FALSE	FALSE	FALSE	FALSE	TRUE	0	FALSE	FALSE
p02	2015	06	24	14	55	m	21	r	25.914002518	3	25	0.40706214399	0.506430948393	tactile	left	catch	tactile	NA	NA	FALSE	FALSE	FALSE	FALSE	FALSE	0	FALSE	FALSE
p02	2015	06	24	14	55	m	21	r	25.914002518	3	26	0.513143035001	0.634188371457	tactile	right	right	tactile	voice	NA	TRUE	FALSE	FALSE	FALSE	TRUE	0	FALSE	FALSE
p02	2015	06	24	14	55	m	21	r	25.914002518	3	27	0.679532406997	1.46528353546	tactile	right	right	tactile	voice	NA	TRUE	FALSE	FALSE	FALSE	FALSE	0	FALSE	FALSE
p02	2015	06	24	14	55	m	21	r	25.914002518	3	28	1.19205941499	0.88536174212	visual	right	right	tactile	NA	82.1232075687	FALSE	FALSE	FALSE	FALSE	TRUE	0	FALSE	TRUE
p02	2015	06	24	14	55	m	21	r	25.914002518	3	29	0.566039828991	0.92900083738	tactile	left	left	tactile	NA	169.717419281	FALSE	FALSE	FALSE	FALSE	TRUE	0	FALSE	FALSE
p02	2015	06	24	14	55	m	21	r	25.914002518	3	30	0.604989356012	0.634933249233	tactile	left	left	visual	NA	230.359194422	FALSE	FALSE	FALSE	FALSE	TRUE	0	FALSE	TRUE
p02	2015	06	24	14	55	m	21	r	25.914002518	3	31	0.587175153021	0.954001594051	visual	left	left	visual	NA	325.94813162	FALSE	FALSE	FALSE	FALSE	FALSE	0	FALSE	FALSE
p02	2015	06	24	14	55	m	21	r	25.914002518	3	32	0.502774018998	0.548455207973	tactile	right	right	visual	NA	290.632647666	FALSE	FALSE	FALSE	FALSE	FALSE	0	FALSE	FALSE
p02	2015	06	24	14	55	m	21	r	25.914002518	3	33	0.48144963599	0.790821250627	visual	right	right	tactile	NA	175.655634055	FALSE	FALSE	FALSE	FALSE	TRUE	0	FALSE	FALSE
p02	2015	06	24	14	55	m	21	r	25.914002518	3	34	0.467289394001	0.929141118782	tactile	left	left	tactile	NA	129.406246881	FALSE	FALSE	FALSE	FALSE	TRUE	0	FALSE	FALSE
p02	2015	06	24	14	55	m	21	r	25.914002518	3	35	0.533756748016	1.39647990059	tactile	left	right	tactile	NA	210.80723207	FALSE	FALSE	FALSE	FALSE	TRUE	0	FALSE	FALSE
p02	2015	06	24	14	55	m	21	r	25.914002518	3	36	0.568515407998	1.49068241349	visual	left	right	visual	NA	92.5570461841	FALSE	FALSE	FALSE	FALSE	TRUE	0	FALSE	FALSE
p02	2015	06	24	14	55	m	21	r	25.914002518	3	37	0.412475066987	0.671054640802	visual	right	catch	visual	NA	169.636999839	FALSE	FALSE	FALSE	FALSE	FALSE	0	FALSE	FALSE
p02	2015	06	24	14	55	m	21	r	25.914002518	3	38	0.474110346986	1.33223602897	tactile	left	right	tactile	NA	235.638509679	FALSE	FALSE	FALSE	FALSE	TRUE	0	FALSE	TRUE
p02	2015	06	24	14	55	m	21	r	25.914002518	3	39	0.399316596013	0.992828248835	visual	right	left	visual	NA	222.00230282	FALSE	FALSE	FALSE	FALSE	TRUE	0	FALSE	FALSE
p02	2015	06	24	14	55	m	21	r	25.914002518	3	40	1.23404519999	0.687365693666	tactile	right	catch	tactile	NA	316.615458985	FALSE	FALSE	FALSE	FALSE	TRUE	0	FALSE	FALSE
p02	2015	06	24	14	55	m	21	r	3.60354346602	3	41	1.619509571	1.49313948733	tactile	right	right	visual	NA	305.851084355	FALSE	FALSE	FALSE	FALSE	FALSE	0	FALSE	FALSE
p02	2015	06	24	14	55	m	21	r	3.60354346602	3	42	0.462104018981	1.38465113871	tactile	right	left	tactile	NA	200.874020957	FALSE	FALSE	FALSE	FALSE	TRUE	0	FALSE	FALSE
p02	2015	06	24	14	55	m	21	r	3.60354346602	3	43	0.406051878992	1.01584092355	tactile	left	right	tactile	NA	229.882559128	FALSE	FALSE	FALSE	FALSE	TRUE	0	FALSE	TRUE
p02	2015	06	24	14	55	m	21	r	3.60354346602	3	44	0.421770283981	0.6999625056	visual	right	right	visual	NA	232.016547059	FALSE	FALSE	FALSE	FALSE	TRUE	0	FALSE	TRUE
p02	2015	06	24	14	55	m	21	r	3.60354346602	3	45	0.400977154	1.3835474496	visual	left	left	visual	NA	202.102049079	FALSE	FALSE	FALSE	FALSE	TRUE	0	FALSE	TRUE
p02	2015	06	24	14	55	m	21	r	3.60354346602	3	46	0.409044330998	1.45489284822	tactile	right	right	tactile	voice	NA	TRUE	FALSE	FALSE	FALSE	TRUE	0	FALSE	TRUE
p02	2015	06	24	14	55	m	21	r	3.60354346602	3	47	1.26170758801	0.820289664593	visual	right	left	visual	NA	251.009617088	FALSE	FALSE	FALSE	FALSE	TRUE	0	FALSE	TRUE
p02	2015	06	24	14	55	m	21	r	3.60354346602	3	48	0.460287500988	0.574349991165	visual	right	left	visual	NA	309.964663495	FALSE	FALSE	FALSE	FALSE	TRUE	0	FALSE	TRUE
p02	2015	06	24	14	55	m	21	r	3.60354346602	3	49	0.457968553994	0.635704286281	visual	left	left	tactile	NA	224.208160362	FALSE	FALSE	FALSE	FALSE	FALSE	0	FALSE	FALSE
p02	2015	06	24	14	55	m	21	r	3.60354346602	3	50	0.514438796992	1.37912527719	visual	right	left	tactile	NA	186.245337478	FALSE	FALSE	FALSE	FALSE	TRUE	0	FALSE	TRUE
p02	2015	06	24	14	55	m	21	r	3.60354346602	3	51	0.449380232982	0.535616827628	visual	left	right	visual	NA	359.40669605	FALSE	FALSE	FALSE	FALSE	FALSE	0	FALSE	FALSE
p02	2015	06	24	14	55	m	21	r	3.60354346602	3	52	0.412263265986	0.861336947723	tactile	left	right	visual	NA	248.621351959	FALSE	FALSE	FALSE	FALSE	TRUE	0	FALSE	TRUE
p02	2015	06	24	14	55	m	21	r	3.60354346602	3	53	0.464602283988	0.918976509283	visual	left	right	visual	NA	233.265718387	FALSE	FALSE	FALSE	FALSE	FALSE	0	FALSE	FALSE
p02	2015	06	24	14	55	m	21	r	3.60354346602	3	54	0.429872399982	0.687794805912	tactile	left	right	tactile	NA	208.345406747	FALSE	FALSE	FALSE	FALSE	FALSE	0	FALSE	FALSE
p02	2015	06	24	14	55	m	21	r	3.60354346602	3	55	0.413213050022	1.19328861002	tactile	right	left	tactile	NA	191.533153644	FALSE	FALSE	FALSE	FALSE	FALSE	0	FALSE	FALSE
p02	2015	06	24	14	55	m	21	r	3.60354346602	3	56	0.49398200601	0.870576548778	visual	right	right	visual	NA	346.335832874	FALSE	FALSE	FALSE	FALSE	FALSE	0	FALSE	FALSE
p02	2015	06	24	14	55	m	21	r	3.60354346602	3	57	0.412084729993	1.42489038747	visual	left	left	visual	NA	292.490923166	FALSE	FALSE	FALSE	FALSE	TRUE	0	FALSE	FALSE
p02	2015	06	24	14	55	m	21	r	3.60354346602	3	58	0.412058857008	0.726848337474	visual	left	right	tactile	NA	201.76362319	FALSE	FALSE	FALSE	FALSE	TRUE	0	FALSE	FALSE
p02	2015	06	24	14	55	m	21	r	3.60354346602	3	59	0.479223455011	0.718452345791	visual	left	right	tactile	NA	212.986346887	FALSE	FALSE	FALSE	FALSE	FALSE	0	FALSE	FALSE
p02	2015	06	24	14	55	m	21	r	3.60354346602	3	60	3.02531444002	0.759703139397	visual	left	left	tactile	NA	197.405378276	FALSE	FALSE	FALSE	FALSE	TRUE	0	FALSE	FALSE
p02	2015	06	24	14	55	m	21	r	3.60354346602	3	61	0.501141682005	0.66221474606	visual	right	right	visual	voice	NA	TRUE	FALSE	FALSE	FALSE	FALSE	0	FALSE	FALSE
p02	2015	06	24	14	55	m	21	r	3.60354346602	3	62	0.615780738997	0.960524870435	tactile	left	left	tactile	NA	175.803977239	FALSE	FALSE	FALSE	FALSE	FALSE	0	FALSE	FALSE
p02	2015	06	24	14	55	m	21	r	3.60354346602	3	63	1.06576299103	0.550275586944	visual	right	left	visual	NA	261.657298717	FALSE	FALSE	FALSE	FALSE	FALSE	0	FALSE	FALSE
p02	2015	06	24	14	55	m	21	r	3.60354346602	3	64	3.21580028502	1.05703520968	tactile	left	right	visual	NA	298.809740983	FALSE	FALSE	FALSE	FALSE	FALSE	0	FALSE	FALSE
p02	2015	06	24	14	55	m	21	r	3.60354346602	3	65	0.672322424012	1.47898643654	visual	left	right	tactile	NA	211.920069123	FALSE	FALSE	FALSE	FALSE	TRUE	0	FALSE	TRUE
p02	2015	06	24	14	55	m	21	r	3.60354346602	3	66	4.95832737701	0.64061752698	visual	left	left	tactile	NA	221.872015682	FALSE	FALSE	FALSE	FALSE	FALSE	0	FALSE	FALSE
p02	2015	06	24	14	55	m	21	r	3.60354346602	3	67	0.723597380973	0.789906059623	visual	left	right	tactile	NA	197.60153204	FALSE	FALSE	FALSE	FALSE	TRUE	0	FALSE	TRUE
p02	2015	06	24	14	55	m	21	r	3.60354346602	3	68	0.524674328015	1.47947823135	visual	left	catch	visual	NA	NA	FALSE	FALSE	FALSE	FALSE	TRUE	0	FALSE	TRUE
p02	2015	06	24	14	55	m	21	r	3.60354346602	3	69	0.486121555005	1.01380831765	tactile	right	left	visual	NA	292.09882603	FALSE	FALSE	FALSE	FALSE	TRUE	0	FALSE	TRUE
p02	2015	06	24	14	55	m	21	r	3.60354346602	3	70	0.871409095009	0.543593397993	visual	right	left	tactile	NA	258.897950669	FALSE	FALSE	FALSE	FALSE	FALSE	0	FALSE	FALSE
p02	2015	06	24	14	55	m	21	r	3.60354346602	3	71	0.606214664993	0.955608779024	visual	right	right	visual	NA	417.359672661	FALSE	FALSE	FALSE	FALSE	TRUE	0	FALSE	TRUE
p02	2015	06	24	14	55	m	21	r	3.60354346602	3	72	6.068666776	1.03848204396	tactile	left	catch	tactile	NA	NA	FALSE	FALSE	FALSE	FALSE	TRUE	0	FALSE	TRUE
p02	2015	06	24	14	55	m	21	r	3.60354346602	3	73	0.936298513989	0.535166664279	tactile	left	right	visual	NA	248.30801037	FALSE	FALSE	FALSE	FALSE	TRUE	0	FALSE	FALSE
p02	2015	06	24	14	55	m	21	r	3.60354346602	3	74	4.687194189	0.751106778639	tactile	left	catch	visual	NA	NA	FALSE	FALSE	FALSE	FALSE	FALSE	0	FALSE	FALSE
p02	2015	06	24	14	55	m	21	r	3.60354346602	3	75	3.35357750399	0.705982672321	tactile	left	left	tactile	NA	203.532742365	FALSE	FALSE	FALSE	FALSE	FALSE	0	FALSE	FALSE
p02	2015	06	24	14	55	m	21	r	3.60354346602	3	76	0.539784081018	1.40711108288	tactile	right	right	tactile	NA	177.116026753	FALSE	FALSE	FALSE	FALSE	FALSE	0	FALSE	FALSE
p02	2015	06	24	14	55	m	21	r	3.60354346602	3	77	0.568460748007	0.970134786235	visual	left	catch	tactile	NA	NA	FALSE	FALSE	FALSE	FALSE	TRUE	0	FALSE	TRUE
p02	2015	06	24	14	55	m	21	r	3.60354346602	3	78	0.594881397003	1.09967685311	tactile	left	left	visual	NA	375.587422575	FALSE	FALSE	FALSE	FALSE	TRUE	0	FALSE	TRUE
p02	2015	06	24	14	55	m	21	r	3.60354346602	3	79	9.877785021	1.17440904988	tactile	left	right	tactile	NA	228.657290776	FALSE	FALSE	FALSE	FALSE	FALSE	0	FALSE	FALSE
p02	2015	06	24	14	55	m	21	r	3.60354346602	3	80	0.449995655013	1.38094920273	tactile	left	left	visual	NA	407.742180949	FALSE	FALSE	FALSE	FALSE	FALSE	0	FALSE	FALSE
p02	2015	06	24	14	55	m	21	r	14.198210043	3	81	3.92222787099	1.30435910296	tactile	right	left	visual	voice	NA	TRUE	TRUE	FALSE	FALSE	FALSE	0	FALSE	FALSE
p02	2015	06	24	14	55	m	21	r	14.198210043	3	82	111.624004276	1.20837126758	tactile	right	right	visual	NA	295.044332073	FALSE	FALSE	FALSE	FALSE	FALSE	0	FALSE	FALSE
p02	2015	06	24	14	55	m	21	r	14.198210043	3	83	0.682011122	1.35225112312	tactile	right	left	tactile	NA	187.437102548	FALSE	FALSE	FALSE	FALSE	TRUE	0	FALSE	TRUE
p02	2015	06	24	14	55	m	21	r	14.198210043	3	84	0.427781327977	0.948505164768	tactile	right	left	tactile	NA	60.0422578864	FALSE	FALSE	FALSE	FALSE	FALSE	0	FALSE	FALSE
p02	2015	06	24	14	55	m	21	r	14.198210043	3	85	0.411200362025	0.981495649847	visual	left	left	tactile	NA	201.353621815	FALSE	FALSE	FALSE	FALSE	TRUE	0	FALSE	TRUE
p02	2015	06	24	14	55	m	21	r	14.198210043	3	86	0.515864579997	1.22996692567	visual	left	left	visual	NA	263.69711099	FALSE	FALSE	FALSE	FALSE	TRUE	0	FALSE	TRUE
p02	2015	06	24	14	55	m	21	r	14.198210043	3	87	0.514967656985	1.46650174141	tactile	right	left	visual	NA	251.117287233	FALSE	FALSE	FALSE	FALSE	TRUE	0	FALSE	TRUE
p02	2015	06	24	14	55	m	21	r	14.198210043	3	88	0.524122264003	1.26303968855	visual	right	right	tactile	NA	201.141218102	FALSE	FALSE	FALSE	FALSE	FALSE	0	FALSE	FALSE
p02	2015	06	24	14	55	m	21	r	14.198210043	3	89	0.409632741997	0.794510206212	tactile	left	left	tactile	NA	246.678357449	FALSE	FALSE	FALSE	FALSE	FALSE	0	FALSE	FALSE
p02	2015	06	24	14	55	m	21	r	14.198210043	3	90	0.470400632999	0.702441111982	tactile	right	right	visual	NA	123.077936674	FALSE	FALSE	FALSE	FALSE	TRUE	0	FALSE	FALSE
p02	2015	06	24	14	55	m	21	r	14.198210043	3	91	0.406859151	1.18157928041	tactile	left	left	visual	NA	154.308329249	FALSE	FALSE	FALSE	FALSE	FALSE	0	FALSE	FALSE
p02	2015	06	24	14	55	m	21	r	14.198210043	3	92	0.422792798985	0.990691344141	tactile	left	right	tactile	NA	224.983509543	FALSE	FALSE	FALSE	FALSE	TRUE	0	FALSE	TRUE
p02	2015	06	24	14	55	m	21	r	14.198210043	3	93	0.422785494011	1.33784378893	visual	left	left	visual	NA	274.435833737	FALSE	FALSE	FALSE	FALSE	TRUE	0	FALSE	FALSE
p02	2015	06	24	14	55	m	21	r	14.198210043	3	94	0.409483444993	1.07224045571	tactile	left	right	visual	NA	197.117476957	FALSE	FALSE	FALSE	FALSE	TRUE	0	FALSE	FALSE
p02	2015	06	24	14	55	m	21	r	14.198210043	3	95	0.686299466994	1.32399440205	visual	left	right	tactile	NA	184.933348617	FALSE	FALSE	FALSE	FALSE	TRUE	0	FALSE	FALSE
p02	2015	06	24	14	55	m	21	r	14.198210043	3	96	0.44918666	1.08071571341	visual	right	left	tactile	NA	191.742304247	FALSE	FALSE	FALSE	FALSE	TRUE	0	FALSE	FALSE
p02	2015	06	24	14	55	m	21	r	14.198210043	3	97	0.447748069011	0.63434802	tactile	right	left	tactile	NA	206.340064673	FALSE	FALSE	FALSE	FALSE	TRUE	0	FALSE	TRUE
p02	2015	06	24	14	55	m	21	r	14.198210043	3	98	0.495245561004	0.661703906192	visual	right	right	visual	NA	223.437929468	FALSE	FALSE	FALSE	FALSE	FALSE	0	FALSE	FALSE
p02	2015	06	24	14	55	m	21	r	14.198210043	3	99	0.410609145998	0.718419999683	tactile	right	left	tactile	NA	173.875217995	FALSE	FALSE	FALSE	FALSE	FALSE	0	FALSE	FALSE
p02	2015	06	24	14	55	m	21	r	14.198210043	3	100	0.412307995022	0.515870278828	visual	left	right	tactile	NA	238.71206984	FALSE	FALSE	FALSE	FALSE	FALSE	0	FALSE	FALSE
p02	2015	06	24	14	55	m	21	r	14.198210043	3	101	0.417855058011	1.49425883497	tactile	right	right	visual	NA	306.045831676	FALSE	FALSE	FALSE	FALSE	FALSE	0	FALSE	FALSE
p02	2015	06	24	14	55	m	21	r	14.198210043	3	102	0.409837509011	1.41546910741	tactile	right	left	visual	NA	262.417310238	FALSE	FALSE	FALSE	FALSE	TRUE	0	FALSE	FALSE
p02	2015	06	24	14	55	m	21	r	14.198210043	3	103	0.403388552979	0.513636092113	tactile	left	left	visual	NA	310.198254563	FALSE	FALSE	FALSE	FALSE	TRUE	0	FALSE	TRUE
p02	2015	06	24	14	55	m	21	r	14.198210043	3	104	0.562955314002	0.583623896293	visual	right	left	visual	NA	209.486535343	FALSE	FALSE	FALSE	FALSE	FALSE	0	FALSE	FALSE
p02	2015	06	24	14	55	m	21	r	14.198210043	3	105	0.415610272001	0.651599220379	visual	left	catch	tactile	NA	129.221718293	FALSE	FALSE	FALSE	FALSE	FALSE	0	FALSE	FALSE
p02	2015	06	24	14	55	m	21	r	14.198210043	3	106	0.416425883013	1.19943085135	visual	left	left	visual	NA	202.894929302	FALSE	FALSE	FALSE	FALSE	TRUE	0	FALSE	TRUE
p02	2015	06	24	14	55	m	21	r	14.198210043	3	107	0.87751669201	1.38604586588	tactile	left	right	tactile	NA	216.389943787	FALSE	FALSE	FALSE	FALSE	TRUE	0	FALSE	TRUE
p02	2015	06	24	14	55	m	21	r	14.198210043	3	108	0.488503488014	0.86016962633	visual	right	right	visual	NA	172.545923328	FALSE	FALSE	FALSE	FALSE	FALSE	0	FALSE	FALSE
p02	2015	06	24	14	55	m	21	r	14.198210043	3	109	0.407975534996	0.661737107926	visual	left	right	visual	NA	267.055825709	FALSE	FALSE	FALSE	FALSE	TRUE	0	FALSE	TRUE
p02	2015	06	24	14	55	m	21	r	14.198210043	3	110	0.421718701982	1.3328386091	tactile	right	right	tactile	NA	238.632149587	FALSE	FALSE	FALSE	FALSE	TRUE	0	FALSE	TRUE
p02	2015	06	24	14	55	m	21	r	14.198210043	3	111	0.41595588901	1.48945822345	tactile	right	catch	tactile	NA	NA	FALSE	FALSE	FALSE	FALSE	FALSE	0	FALSE	FALSE
p02	2015	06	24	14	55	m	21	r	14.198210043	3	112	0.684033354017	1.25778057557	visual	left	right	visual	NA	347.778288095	FALSE	FALSE	FALSE	FALSE	FALSE	0	FALSE	FALSE
p02	2015	06	24	14	55	m	21	r	14.198210043	3	113	0.551229898992	1.17397588405	visual	left	left	tactile	NA	238.669938612	FALSE	FALSE	FALSE	FALSE	TRUE	0	FALSE	TRUE
p02	2015	06	24	14	55	m	21	r	14.198210043	3	114	0.614311754005	1.33253611659	tactile	left	right	visual	NA	253.335041081	FALSE	FALSE	FALSE	FALSE	FALSE	0	FALSE	FALSE
p02	2015	06	24	14	55	m	21	r	14.198210043	3	115	0.47976805002	1.25978504667	visual	left	right	tactile	NA	204.234205012	FALSE	FALSE	FALSE	FALSE	TRUE	0	FALSE	TRUE
p02	2015	06	24	14	55	m	21	r	14.198210043	3	116	0.401266444998	0.680189660896	tactile	left	left	visual	NA	231.551678764	FALSE	FALSE	FALSE	FALSE	FALSE	0	FALSE	FALSE
p02	2015	06	24	14	55	m	21	r	14.198210043	3	117	0.641747190995	1.13353410687	tactile	right	left	visual	NA	196.14790281	FALSE	FALSE	FALSE	FALSE	TRUE	0	FALSE	TRUE
p02	2015	06	24	14	55	m	21	r	14.198210043	3	118	0.509759487002	1.09250469969	visual	right	catch	tactile	NA	300.307936996	FALSE	FALSE	FALSE	FALSE	FALSE	0	FALSE	FALSE
p02	2015	06	24	14	55	m	21	r	14.198210043	3	119	0.511738612986	1.35082390647	tactile	left	right	visual	NA	234.016687202	FALSE	FALSE	FALSE	FALSE	FALSE	0	FALSE	FALSE
p02	2015	06	24	14	55	m	21	r	14.198210043	3	120	0.641022833006	1.03767664613	visual	left	right	visual	NA	244.360750512	FALSE	FALSE	FALSE	FALSE	TRUE	0	FALSE	TRUE
p02	2015	06	24	14	55	m	21	r	3.48818764999	3	121	2.763582099	0.962553530926	visual	right	left	visual	NA	232.466741756	FALSE	FALSE	FALSE	FALSE	TRUE	0	FALSE	TRUE
p02	2015	06	24	14	55	m	21	r	3.48818764999	3	122	0.501632425992	1.4842199577	tactile	right	left	tactile	NA	173.517658957	FALSE	FALSE	FALSE	FALSE	FALSE	0	FALSE	FALSE
p02	2015	06	24	14	55	m	21	r	3.48818764999	3	123	0.451206722995	0.809536684983	tactile	right	right	visual	NA	230.565024714	FALSE	FALSE	FALSE	FALSE	TRUE	0	FALSE	TRUE
p02	2015	06	24	14	55	m	21	r	3.48818764999	3	124	0.44970269801	0.542277361728	tactile	right	right	tactile	NA	217.908554943	FALSE	FALSE	FALSE	FALSE	TRUE	0	FALSE	TRUE
p02	2015	06	24	14	55	m	21	r	3.48818764999	3	125	0.565084928006	0.986986331988	visual	left	left	tactile	NA	193.483912677	FALSE	FALSE	FALSE	FALSE	FALSE	0	FALSE	FALSE
p02	2015	06	24	14	55	m	21	r	3.48818764999	3	126	0.467059662013	1.39825630541	visual	right	right	visual	NA	240.783259243	FALSE	FALSE	FALSE	FALSE	FALSE	0	FALSE	FALSE
p02	2015	06	24	14	55	m	21	r	3.48818764999	3	127	0.558790998999	0.528101169063	tactile	right	right	tactile	NA	257.770518598	FALSE	FALSE	FALSE	FALSE	FALSE	0	FALSE	FALSE
p02	2015	06	24	14	55	m	21	r	3.48818764999	3	128	0.686613394995	0.973381749286	tactile	right	left	tactile	NA	190.598122368	FALSE	FALSE	FALSE	FALSE	TRUE	0	FALSE	FALSE
p02	2015	06	24	14	55	m	21	r	3.48818764999	3	129	0.493148076988	0.566645616539	visual	right	left	visual	NA	254.751972097	FALSE	FALSE	FALSE	FALSE	TRUE	0	FALSE	TRUE
p02	2015	06	24	14	55	m	21	r	3.48818764999	3	130	0.521174933994	1.35293801673	tactile	right	right	tactile	NA	186.35148491	FALSE	FALSE	FALSE	FALSE	FALSE	0	FALSE	FALSE
p02	2015	06	24	14	55	m	21	r	3.48818764999	3	131	0.424960559001	1.15734966127	visual	right	right	tactile	NA	221.615461371	FALSE	FALSE	FALSE	FALSE	FALSE	0	FALSE	FALSE
p02	2015	06	24	14	55	m	21	r	3.48818764999	3	132	0.538835193001	1.45288555922	visual	left	left	visual	NA	174.678690411	FALSE	FALSE	FALSE	FALSE	TRUE	0	FALSE	TRUE
p02	2015	06	24	14	55	m	21	r	3.48818764999	3	133	2.619151594	1.0111069244	visual	left	left	tactile	NA	241.411273251	FALSE	FALSE	FALSE	FALSE	FALSE	0	FALSE	FALSE
p02	2015	06	24	14	55	m	21	r	3.48818764999	3	134	0.494110099011	1.1859725788	visual	right	right	tactile	NA	188.65481086	FALSE	FALSE	FALSE	FALSE	TRUE	0	FALSE	TRUE
p02	2015	06	24	14	55	m	21	r	3.48818764999	3	135	0.469691856008	1.24381102329	tactile	right	catch	visual	NA	109.751516371	FALSE	FALSE	FALSE	FALSE	TRUE	0	FALSE	TRUE
p02	2015	06	24	14	55	m	21	r	3.48818764999	3	136	0.504432435002	0.934735709839	visual	right	left	tactile	NA	241.849240818	FALSE	FALSE	FALSE	FALSE	TRUE	0	FALSE	TRUE
p02	2015	06	24	14	55	m	21	r	3.48818764999	3	137	5.478373419	0.568697445279	visual	right	left	visual	NA	253.371807397	FALSE	FALSE	FALSE	FALSE	FALSE	0	FALSE	FALSE
p02	2015	06	24	14	55	m	21	r	3.48818764999	3	138	0.845108947979	1.18287948425	tactile	left	catch	visual	NA	NA	FALSE	FALSE	FALSE	FALSE	TRUE	0	FALSE	FALSE
p02	2015	06	24	14	55	m	21	r	3.48818764999	3	139	0.529475073999	1.2952660595	visual	right	catch	tactile	NA	NA	FALSE	FALSE	FALSE	FALSE	TRUE	0	FALSE	TRUE
p02	2015	06	24	14	55	m	21	r	3.48818764999	3	140	0.586606225988	0.901640571211	visual	right	catch	visual	NA	NA	FALSE	FALSE	FALSE	FALSE	TRUE	0	FALSE	TRUE
p02	2015	06	24	14	55	m	21	r	3.48818764999	3	141	1.84976107298	0.550782240655	visual	left	catch	visual	NA	NA	FALSE	FALSE	FALSE	FALSE	TRUE	0	FALSE	FALSE
p02	2015	06	24	14	55	m	21	r	3.48818764999	3	142	0.568682043988	0.790879878118	visual	left	left	tactile	NA	418.565676548	FALSE	FALSE	FALSE	FALSE	TRUE	0	FALSE	TRUE
p02	2015	06	24	14	55	m	21	r	3.48818764999	3	143	0.546629700984	0.568630039971	visual	right	right	tactile	NA	291.338539682	FALSE	FALSE	FALSE	FALSE	TRUE	0	FALSE	FALSE
p02	2015	06	24	14	55	m	21	r	3.48818764999	3	144	0.622264539998	1.27717953865	visual	right	left	tactile	NA	283.610738028	FALSE	FALSE	FALSE	FALSE	TRUE	0	FALSE	TRUE
p02	2015	06	24	14	55	m	21	r	3.48818764999	3	145	0.529042145004	1.22279111105	tactile	right	left	visual	voice	NA	TRUE	FALSE	FALSE	FALSE	TRUE	0	FALSE	FALSE
p02	2015	06	24	14	55	m	21	r	3.48818764999	3	146	1.14085190499	0.919675548737	tactile	left	right	tactile	NA	198.118689936	FALSE	FALSE	FALSE	FALSE	TRUE	0	FALSE	TRUE
p02	2015	06	24	14	55	m	21	r	3.48818764999	3	147	0.446195102006	1.42687782324	tactile	left	left	visual	NA	300.788169407	FALSE	FALSE	FALSE	FALSE	TRUE	0	FALSE	TRUE
p02	2015	06	24	14	55	m	21	r	3.48818764999	3	148	0.482198712998	1.37052176997	tactile	right	catch	visual	NA	NA	FALSE	FALSE	FALSE	FALSE	TRUE	0	FALSE	FALSE
p02	2015	06	24	14	55	m	21	r	3.48818764999	3	149	1.94730500301	0.649763790298	tactile	left	right	visual	NA	280.80113238	FALSE	FALSE	FALSE	FALSE	FALSE	0	FALSE	FALSE
p02	2015	06	24	14	55	m	21	r	3.48818764999	3	150	0.750541920017	0.71801573902	visual	left	right	visual	NA	295.590413618	FALSE	FALSE	FALSE	FALSE	TRUE	0	FALSE	TRUE
p02	2015	06	24	14	55	m	21	r	3.48818764999	3	151	0.582140195998	0.581098711905	visual	left	right	visual	NA	349.061015761	FALSE	FALSE	FALSE	FALSE	TRUE	0	FALSE	TRUE
p02	2015	06	24	14	55	m	21	r	3.48818764999	3	152	1.13846223598	0.532860587388	visual	left	right	tactile	NA	125.2306893	FALSE	FALSE	FALSE	FALSE	FALSE	0	FALSE	FALSE
p02	2015	06	24	14	55	m	21	r	3.48818764999	3	153	0.750781134004	0.517523384796	tactile	left	left	tactile	NA	119.192322862	FALSE	FALSE	FALSE	FALSE	TRUE	0	FALSE	TRUE
p02	2015	06	24	14	55	m	21	r	3.48818764999	3	154	0.659087626002	1.30896347393	visual	right	left	tactile	voice	NA	TRUE	FALSE	FALSE	FALSE	TRUE	0	FALSE	FALSE
p02	2015	06	24	14	55	m	21	r	3.48818764999	3	155	0.926691617991	1.40732738006	tactile	left	left	tactile	voice	NA	TRUE	FALSE	FALSE	FALSE	TRUE	0	FALSE	FALSE
p02	2015	06	24	14	55	m	21	r	3.48818764999	3	156	0.815493333997	0.896534065272	tactile	left	left	tactile	NA	202.238092374	FALSE	FALSE	FALSE	FALSE	TRUE	0	FALSE	TRUE
p02	2015	06	24	14	55	m	21	r	3.48818764999	3	157	0.407332292001	1.2802015657	tactile	right	left	visual	NA	261.630746943	FALSE	FALSE	FALSE	FALSE	FALSE	0	FALSE	FALSE
p02	2015	06	24	14	55	m	21	r	3.48818764999	3	158	0.470136544987	0.658873047871	tactile	right	left	visual	NA	177.535246767	FALSE	FALSE	FALSE	FALSE	TRUE	0	FALSE	FALSE
p02	2015	06	24	14	55	m	21	r	3.48818764999	3	159	0.404531485983	1.37336965116	visual	right	right	tactile	NA	174.711034517	FALSE	FALSE	FALSE	FALSE	TRUE	0	FALSE	TRUE
p02	2015	06	24	14	55	m	21	r	3.48818764999	3	160	1.84361132298	1.18813631508	tactile	right	left	tactile	NA	246.574842575	FALSE	FALSE	FALSE	FALSE	TRUE	0	FALSE	TRUE
p02	2015	06	24	14	55	m	21	r	13.792868796	4	1	1.077388982	1.43271128103	visual	left	right	visual	NA	224.931607634	FALSE	FALSE	FALSE	FALSE	FALSE	0	FALSE	FALSE
p02	2015	06	24	14	55	m	21	r	13.792868796	4	2	0.467225974979	0.913499852002	tactile	left	right	visual	NA	144.511797669	FALSE	FALSE	FALSE	FALSE	TRUE	0	FALSE	TRUE
p02	2015	06	24	14	55	m	21	r	13.792868796	4	3	0.431471967982	0.603631861494	tactile	left	left	visual	NA	242.287786154	FALSE	FALSE	FALSE	FALSE	TRUE	0	FALSE	TRUE
p02	2015	06	24	14	55	m	21	r	13.792868796	4	4	0.409138340998	1.13327778558	visual	left	left	tactile	voice	NA	TRUE	FALSE	FALSE	FALSE	FALSE	0	FALSE	FALSE
p02	2015	06	24	14	55	m	21	r	13.792868796	4	5	0.692613713996	1.25239703717	tactile	left	right	visual	NA	323.412971513	FALSE	FALSE	FALSE	FALSE	TRUE	0	FALSE	TRUE
p02	2015	06	24	14	55	m	21	r	13.792868796	4	6	0.702124439005	0.945222723923	visual	left	left	visual	NA	314.716891764	FALSE	FALSE	FALSE	FALSE	TRUE	0	FALSE	TRUE
p02	2015	06	24	14	55	m	21	r	13.792868796	4	7	0.48642133901	1.41308354666	tactile	right	right	visual	NA	236.208624003	FALSE	FALSE	FALSE	FALSE	TRUE	0	FALSE	TRUE
p02	2015	06	24	14	55	m	21	r	13.792868796	4	8	0.452365616016	1.27737714668	tactile	left	right	visual	NA	231.686173007	FALSE	FALSE	FALSE	FALSE	TRUE	0	FALSE	TRUE
p02	2015	06	24	14	55	m	21	r	13.792868796	4	9	0.42132901802	0.649276139166	tactile	left	left	tactile	NA	199.572140496	FALSE	FALSE	FALSE	FALSE	FALSE	0	FALSE	FALSE
p02	2015	06	24	14	55	m	21	r	13.792868796	4	10	0.404901875008	0.520512700103	tactile	right	right	tactile	NA	199.363481544	FALSE	FALSE	FALSE	FALSE	TRUE	0	FALSE	TRUE
p02	2015	06	24	14	55	m	21	r	13.792868796	4	11	0.407579162013	0.556230643994	visual	left	right	tactile	NA	186.561340641	FALSE	FALSE	FALSE	FALSE	TRUE	0	FALSE	FALSE
p02	2015	06	24	14	55	m	21	r	13.792868796	4	12	0.466133240989	0.838322327975	visual	right	left	tactile	NA	194.235016708	FALSE	FALSE	FALSE	FALSE	FALSE	0	FALSE	FALSE
p02	2015	06	24	14	55	m	21	r	13.792868796	4	13	0.822890811018	1.12460435241	visual	left	right	tactile	NA	191.09588227	FALSE	FALSE	FALSE	FALSE	FALSE	0	FALSE	FALSE
p02	2015	06	24	14	55	m	21	r	13.792868796	4	14	0.496738716	1.20251482641	visual	left	right	tactile	NA	142.846694274	FALSE	FALSE	FALSE	FALSE	TRUE	0	FALSE	FALSE
p02	2015	06	24	14	55	m	21	r	13.792868796	4	15	0.490501881985	1.4835384956	visual	left	catch	tactile	NA	263.736834051	FALSE	FALSE	FALSE	FALSE	FALSE	0	FALSE	FALSE
p02	2015	06	24	14	55	m	21	r	13.792868796	4	16	0.401669048006	1.18273816166	visual	right	left	tactile	NA	211.123159999	FALSE	FALSE	FALSE	FALSE	TRUE	0	FALSE	TRUE
p02	2015	06	24	14	55	m	21	r	13.792868796	4	17	0.430700944999	0.722693335527	tactile	left	catch	visual	NA	378.639738134	FALSE	FALSE	FALSE	FALSE	TRUE	0	FALSE	TRUE
p02	2015	06	24	14	55	m	21	r	13.792868796	4	18	0.410135166981	0.892543230306	visual	right	right	tactile	NA	249.915403372	FALSE	FALSE	FALSE	FALSE	TRUE	0	FALSE	FALSE
p02	2015	06	24	14	55	m	21	r	13.792868796	4	19	0.443444959994	0.630173624951	tactile	right	right	visual	NA	306.502539694	FALSE	FALSE	FALSE	FALSE	TRUE	0	FALSE	TRUE
p02	2015	06	24	14	55	m	21	r	13.792868796	4	20	0.448427864001	0.884135707908	visual	left	right	visual	NA	302.829287742	FALSE	FALSE	FALSE	FALSE	FALSE	0	FALSE	FALSE
p02	2015	06	24	14	55	m	21	r	13.792868796	4	21	0.475343825005	0.797271306146	visual	left	right	visual	NA	129.851573554	FALSE	FALSE	FALSE	FALSE	TRUE	0	FALSE	TRUE
p02	2015	06	24	14	55	m	21	r	13.792868796	4	22	0.47438354601	0.592427486445	tactile	right	left	visual	NA	249.722513225	FALSE	FALSE	FALSE	FALSE	TRUE	0	FALSE	FALSE
p02	2015	06	24	14	55	m	21	r	13.792868796	4	23	0.406096286984	1.41640211015	tactile	left	right	tactile	NA	196.437363484	FALSE	FALSE	FALSE	FALSE	FALSE	0	FALSE	FALSE
p02	2015	06	24	14	55	m	21	r	13.792868796	4	24	0.411729471991	0.839020867992	visual	right	left	visual	NA	214.941222657	FALSE	FALSE	FALSE	FALSE	TRUE	0	FALSE	FALSE
p02	2015	06	24	14	55	m	21	r	13.792868796	4	25	0.417372809985	1.22561060752	visual	left	left	tactile	NA	165.716956108	FALSE	FALSE	FALSE	FALSE	TRUE	0	FALSE	TRUE
p02	2015	06	24	14	55	m	21	r	13.792868796	4	26	0.419828782004	1.34594686306	tactile	right	left	tactile	NA	80.2855695947	FALSE	FALSE	FALSE	FALSE	TRUE	0	FALSE	TRUE
p02	2015	06	24	14	55	m	21	r	13.792868796	4	27	0.40933240499	1.02704644969	tactile	right	right	tactile	NA	271.451824985	FALSE	FALSE	FALSE	FALSE	TRUE	0	FALSE	TRUE
p02	2015	06	24	14	55	m	21	r	13.792868796	4	28	1.77386028698	1.12384971454	tactile	right	left	tactile	NA	160.976001091	FALSE	FALSE	FALSE	FALSE	TRUE	0	FALSE	TRUE
p02	2015	06	24	14	55	m	21	r	13.792868796	4	29	0.582174538984	0.739775867143	tactile	right	left	tactile	NA	279.882419505	FALSE	FALSE	FALSE	FALSE	FALSE	0	FALSE	FALSE
p02	2015	06	24	14	55	m	21	r	13.792868796	4	30	0.413138953998	0.52858554525	visual	left	right	visual	NA	265.697404422	FALSE	FALSE	FALSE	FALSE	TRUE	0	FALSE	TRUE
p02	2015	06	24	14	55	m	21	r	13.792868796	4	31	1.47349911201	0.770495016375	tactile	right	right	visual	NA	306.774432305	FALSE	FALSE	FALSE	FALSE	TRUE	0	FALSE	TRUE
p02	2015	06	24	14	55	m	21	r	13.792868796	4	32	0.512178039993	0.767982524837	tactile	left	left	visual	NA	225.268777809	FALSE	FALSE	FALSE	FALSE	TRUE	0	FALSE	TRUE
p02	2015	06	24	14	55	m	21	r	13.792868796	4	33	0.417055711005	1.13978578081	tactile	left	left	tactile	NA	189.634541865	FALSE	FALSE	FALSE	FALSE	TRUE	0	FALSE	TRUE
p02	2015	06	24	14	55	m	21	r	13.792868796	4	34	0.41441858199	0.946866977956	tactile	right	left	tactile	NA	191.764513729	FALSE	FALSE	FALSE	FALSE	TRUE	0	FALSE	FALSE
p02	2015	06	24	14	55	m	21	r	13.792868796	4	35	0.404393826	0.855666979581	visual	right	left	tactile	NA	215.464792069	FALSE	FALSE	FALSE	FALSE	TRUE	0	FALSE	TRUE
p02	2015	06	24	14	55	m	21	r	13.792868796	4	36	0.40666633501	0.848329059164	visual	left	catch	tactile	NA	204.887884494	FALSE	FALSE	FALSE	FALSE	TRUE	0	FALSE	TRUE
p02	2015	06	24	14	55	m	21	r	13.792868796	4	37	0.407120596996	0.848898822301	visual	right	catch	tactile	NA	293.497680366	FALSE	FALSE	FALSE	FALSE	FALSE	0	FALSE	FALSE
p02	2015	06	24	14	55	m	21	r	13.792868796	4	38	0.415707848995	1.47432137198	visual	left	left	tactile	NA	304.245729669	FALSE	FALSE	FALSE	FALSE	FALSE	0	FALSE	FALSE
p02	2015	06	24	14	55	m	21	r	13.792868796	4	39	0.461647155986	0.522029659076	tactile	right	catch	tactile	NA	344.203265588	FALSE	FALSE	FALSE	FALSE	TRUE	0	FALSE	TRUE
p02	2015	06	24	14	55	m	21	r	13.792868796	4	40	0.447370226	1.243034806	visual	left	left	visual	NA	454.111840663	FALSE	FALSE	FALSE	FALSE	TRUE	0	FALSE	FALSE
p02	2015	06	24	14	55	m	21	r	6.77672947399	4	41	1.987132229	1.4418314357	visual	right	right	tactile	NA	292.253999942	FALSE	FALSE	FALSE	TRUE	TRUE	0	FALSE	FALSE
p02	2015	06	24	14	55	m	21	r	6.77672947399	4	42	3.18544527801	1.42586363126	tactile	left	right	visual	NA	246.204330382	FALSE	FALSE	FALSE	FALSE	TRUE	0	FALSE	FALSE
p02	2015	06	24	14	55	m	21	r	6.77672947399	4	43	0.728599900001	1.10826902234	tactile	left	right	tactile	NA	236.213303317	FALSE	FALSE	FALSE	FALSE	TRUE	0	FALSE	TRUE
p02	2015	06	24	14	55	m	21	r	6.77672947399	4	44	0.499404640985	1.04699824034	visual	left	right	tactile	NA	256.6160883	FALSE	FALSE	FALSE	FALSE	FALSE	0	FALSE	FALSE
p02	2015	06	24	14	55	m	21	r	6.77672947399	4	45	0.727610514994	0.569247697131	visual	right	right	visual	NA	277.801400516	FALSE	FALSE	FALSE	FALSE	FALSE	0	FALSE	FALSE
p02	2015	06	24	14	55	m	21	r	6.77672947399	4	46	0.799956575996	0.83100380421	visual	right	left	tactile	NA	219.979978458	FALSE	FALSE	FALSE	FALSE	TRUE	0	FALSE	TRUE
p02	2015	06	24	14	55	m	21	r	6.77672947399	4	47	0.840243667015	1.17788408114	tactile	right	catch	tactile	NA	NA	FALSE	FALSE	FALSE	FALSE	TRUE	0	FALSE	TRUE
p02	2015	06	24	14	55	m	21	r	6.77672947399	4	48	0.417479881988	0.649347239412	visual	left	left	visual	NA	414.408095239	FALSE	FALSE	FALSE	FALSE	FALSE	0	FALSE	FALSE
p02	2015	06	24	14	55	m	21	r	6.77672947399	4	49	0.600398918003	0.738861257953	tactile	left	left	visual	NA	560.302181722	FALSE	FALSE	FALSE	FALSE	TRUE	0	FALSE	FALSE
p02	2015	06	24	14	55	m	21	r	6.77672947399	4	50	0.600941037002	1.28268084342	visual	left	left	tactile	NA	59.1419052507	FALSE	FALSE	FALSE	FALSE	FALSE	0	FALSE	FALSE
p02	2015	06	24	14	55	m	21	r	6.77672947399	4	51	0.78137023098	1.3506965452	tactile	right	right	tactile	NA	213.360743452	FALSE	FALSE	FALSE	FALSE	FALSE	0	FALSE	FALSE
p02	2015	06	24	14	55	m	21	r	6.77672947399	4	52	0.728871191008	1.29478553999	visual	right	left	visual	NA	237.816612673	FALSE	FALSE	FALSE	FALSE	TRUE	0	FALSE	FALSE
p02	2015	06	24	14	55	m	21	r	6.77672947399	4	53	0.714265535993	0.850160087959	visual	right	right	visual	NA	299.893836724	FALSE	FALSE	FALSE	FALSE	TRUE	0	FALSE	TRUE
p02	2015	06	24	14	55	m	21	r	6.77672947399	4	54	0.583935731993	0.953724339277	tactile	right	right	visual	NA	123.378573364	FALSE	FALSE	FALSE	FALSE	TRUE	0	FALSE	TRUE
p02	2015	06	24	14	55	m	21	r	6.77672947399	4	55	3.453423984	1.39032181501	visual	left	left	visual	NA	296.619806642	FALSE	FALSE	FALSE	FALSE	TRUE	0	FALSE	TRUE
p02	2015	06	24	14	55	m	21	r	6.77672947399	4	56	4.33946938001	0.639749452396	tactile	left	right	tactile	NA	273.498553288	FALSE	FALSE	FALSE	FALSE	TRUE	0	FALSE	TRUE
p02	2015	06	24	14	55	m	21	r	6.77672947399	4	57	0.825723631977	0.997199394856	visual	right	left	tactile	NA	209.327781806	FALSE	FALSE	FALSE	FALSE	TRUE	0	FALSE	TRUE
p02	2015	06	24	14	55	m	21	r	6.77672947399	4	58	0.873911625007	1.07293670031	tactile	right	right	visual	NA	244.578800368	FALSE	FALSE	FALSE	FALSE	TRUE	0	FALSE	TRUE
p02	2015	06	24	14	55	m	21	r	6.77672947399	4	59	0.776879643003	0.809099979403	visual	left	catch	visual	NA	NA	FALSE	FALSE	FALSE	FALSE	TRUE	0	FALSE	FALSE
p02	2015	06	24	14	55	m	21	r	6.77672947399	4	60	0.768982565001	1.37233784872	visual	right	right	tactile	NA	232.31399295	FALSE	FALSE	FALSE	FALSE	TRUE	0	FALSE	TRUE
p02	2015	06	24	14	55	m	21	r	6.77672947399	4	61	0.735763761011	1.21850813301	visual	right	left	tactile	NA	250.532985665	FALSE	FALSE	FALSE	FALSE	TRUE	0	FALSE	FALSE
p02	2015	06	24	14	55	m	21	r	6.77672947399	4	62	0.457018163987	0.634741961088	visual	right	right	visual	NA	710.77317759	FALSE	FALSE	FALSE	FALSE	TRUE	0	FALSE	TRUE
p02	2015	06	24	14	55	m	21	r	6.77672947399	4	63	0.612195682974	1.49369483784	visual	right	left	visual	NA	253.558783821	FALSE	FALSE	FALSE	FALSE	TRUE	0	FALSE	FALSE
p02	2015	06	24	14	55	m	21	r	6.77672947399	4	64	0.721263618005	0.705832640453	visual	left	catch	visual	NA	NA	FALSE	FALSE	FALSE	FALSE	TRUE	0	FALSE	FALSE
p02	2015	06	24	14	55	m	21	r	6.77672947399	4	65	0.762830012012	0.881108636132	tactile	right	right	tactile	NA	244.043120532	FALSE	FALSE	FALSE	FALSE	TRUE	0	FALSE	TRUE
p02	2015	06	24	14	55	m	21	r	6.77672947399	4	66	1.9447197	0.515608784736	tactile	right	right	visual	NA	119.959528907	FALSE	FALSE	FALSE	FALSE	TRUE	0	FALSE	TRUE
p02	2015	06	24	14	55	m	21	r	6.77672947399	4	67	0.431567630993	0.669732524455	visual	right	right	tactile	NA	231.201654213	FALSE	FALSE	FALSE	FALSE	TRUE	0	FALSE	TRUE
p02	2015	06	24	14	55	m	21	r	6.77672947399	4	68	0.476434722019	1.12886324194	visual	left	right	visual	NA	252.171543718	FALSE	FALSE	FALSE	FALSE	TRUE	0	FALSE	FALSE
