id	year	month	day	hour	minute	sex	age	handedness	message_viewing_time	block	trial_num	trial_initiation_time	fixation_duration	cue_modality	cue_location	target_location	target_modality	target_response_key	target_response_rt	pre_target_response	feedback_response	recalibration	blink	saccade	biggest_small_saccade	critical_blink	critical_saccade	trigger_shown
p05	2015	07	04	14	34	m	33	r	11.4870424379	practice	1	6.23115720198	0.665163158707	visual	left	right	tactile	NA	NA	FALSE	FALSE	FALSE	FALSE	FALSE	0	FALSE	FALSE	TRUE
p05	2015	07	04	14	34	m	33	r	11.4870424379	practice	2	3.21565763903	0.503548244475	tactile	left	left	tactile	NA	460.248809133	FALSE	FALSE	FALSE	FALSE	FALSE	0	FALSE	FALSE	TRUE
p05	2015	07	04	14	34	m	33	r	11.4870424379	practice	3	2.72512934904	1.17733734452	tactile	right	right	tactile	NA	478.16552018	FALSE	FALSE	FALSE	FALSE	FALSE	0	FALSE	FALSE	TRUE
p05	2015	07	04	14	34	m	33	r	11.4870424379	practice	4	1.62709137099	0.647821477518	tactile	right	left	tactile	NA	422.790382116	FALSE	FALSE	FALSE	FALSE	FALSE	0	FALSE	FALSE	TRUE
p05	2015	07	04	14	34	m	33	r	11.4870424379	practice	5	0.824945166009	1.28074621189	tactile	left	right	visual	NA	NA	FALSE	FALSE	FALSE	FALSE	TRUE	0	FALSE	FALSE	FALSE
p05	2015	07	04	14	34	m	33	r	11.4870424379	practice	6	3.35172756203	1.27313405376	tactile	right	left	visual	voice	NA	TRUE	FALSE	FALSE	FALSE	FALSE	0	FALSE	FALSE	FALSE
p05	2015	07	04	14	34	m	33	r	11.4870424379	practice	7	0.419860284019	1.18645573768	visual	left	left	tactile	voice	NA	TRUE	FALSE	FALSE	FALSE	FALSE	0	FALSE	FALSE	FALSE
p05	2015	07	04	14	34	m	33	r	11.4870424379	practice	8	194.931546546	1.18413483454	visual	left	right	visual	NA	NA	FALSE	FALSE	FALSE	FALSE	TRUE	0	FALSE	FALSE	FALSE
p05	2015	07	04	14	34	m	33	r	11.4870424379	practice	9	1.87638375303	0.756921088714	tactile	left	right	visual	NA	NA	FALSE	FALSE	FALSE	FALSE	TRUE	0	FALSE	TRUE	FALSE
p05	2015	07	04	14	34	m	33	r	11.4870424379	practice	10	9.63731259195	0.618164340564	visual	left	left	tactile	NA	719.538880105	FALSE	FALSE	FALSE	FALSE	FALSE	0	FALSE	FALSE	TRUE
p05	2015	07	04	14	34	m	33	r	11.4870424379	practice	11	7.123615716	0.870038254997	tactile	left	right	visual	NA	261.862045678	FALSE	FALSE	FALSE	FALSE	FALSE	0	FALSE	FALSE	TRUE
p05	2015	07	04	14	34	m	33	r	11.4870424379	practice	12	2.76191425003	0.961638488931	visual	left	right	visual	NA	535.086684744	FALSE	FALSE	FALSE	FALSE	FALSE	0	FALSE	FALSE	TRUE
p05	2015	07	04	14	34	m	33	r	11.4870424379	practice	13	2.01081425202	1.47888442285	visual	right	left	visual	NA	NA	FALSE	FALSE	FALSE	FALSE	TRUE	0	FALSE	FALSE	FALSE
p05	2015	07	04	14	34	m	33	r	11.4870424379	practice	14	1.46654514596	1.22752522321	visual	right	right	tactile	NA	325.500188454	FALSE	FALSE	FALSE	FALSE	FALSE	0	FALSE	FALSE	TRUE
p05	2015	07	04	14	34	m	33	r	11.4870424379	practice	15	3.26123259298	1.0698742026	visual	left	right	visual	NA	573.235301068	FALSE	FALSE	FALSE	FALSE	FALSE	0	FALSE	FALSE	TRUE
p05	2015	07	04	14	34	m	33	r	11.4870424379	practice	16	1.99304567598	1.03785256582	visual	left	left	visual	NA	NA	FALSE	FALSE	FALSE	FALSE	TRUE	0	FALSE	TRUE	FALSE
p05	2015	07	04	14	34	m	33	r	11.4870424379	practice	17	1.34231162799	1.44949380122	tactile	left	left	visual	NA	NA	FALSE	FALSE	FALSE	FALSE	FALSE	0	FALSE	FALSE	TRUE
p05	2015	07	04	14	34	m	33	r	11.4870424379	practice	18	17.925166375	0.637921528779	tactile	left	left	visual	NA	728.938525892	FALSE	FALSE	FALSE	FALSE	FALSE	0	FALSE	FALSE	TRUE
p05	2015	07	04	14	34	m	33	r	11.4870424379	practice	19	15.215236229	0.953713060033	visual	left	left	tactile	NA	NA	FALSE	FALSE	FALSE	FALSE	TRUE	0	FALSE	TRUE	FALSE
p05	2015	07	04	14	34	m	33	r	11.4870424379	practice	20	1.84013963601	1.01874049057	tactile	left	left	visual	NA	40.0073871133	FALSE	FALSE	FALSE	FALSE	FALSE	0	FALSE	FALSE	TRUE
p05	2015	07	04	14	34	m	33	r	11.4870424379	practice	21	2.39062799996	1.47002767994	visual	right	left	tactile	NA	522.243336716	FALSE	FALSE	FALSE	FALSE	FALSE	0	FALSE	FALSE	TRUE
p05	2015	07	04	14	34	m	33	r	11.4870424379	practice	22	1.78957386495	0.902888403488	visual	left	right	visual	NA	NA	FALSE	FALSE	FALSE	FALSE	TRUE	0	FALSE	FALSE	FALSE
p05	2015	07	04	14	34	m	33	r	11.4870424379	practice	23	1.79445747199	1.2619672882	tactile	left	right	tactile	NA	443.424454483	FALSE	FALSE	FALSE	FALSE	FALSE	0	FALSE	FALSE	TRUE
p05	2015	07	04	14	34	m	33	r	11.4870424379	practice	24	1.687534392	0.580427415865	visual	left	left	visual	NA	779.719268787	FALSE	FALSE	FALSE	FALSE	FALSE	0	FALSE	FALSE	TRUE
p05	2015	07	04	14	34	m	33	r	11.4870424379	practice	25	1.31707042799	1.03999861617	visual	right	right	visual	NA	NA	FALSE	FALSE	FALSE	FALSE	TRUE	0	FALSE	FALSE	TRUE
p05	2015	07	04	14	34	m	33	r	11.4870424379	practice	26	1.58704730199	0.577842562488	tactile	left	right	visual	NA	NA	FALSE	FALSE	FALSE	FALSE	FALSE	0	FALSE	FALSE	TRUE
p05	2015	07	04	14	34	m	33	r	11.4870424379	practice	27	4.46611098701	0.871697577356	visual	right	left	visual	NA	479.586339323	FALSE	FALSE	FALSE	FALSE	FALSE	0	FALSE	FALSE	TRUE
p05	2015	07	04	14	34	m	33	r	11.4870424379	practice	28	1.79398020299	0.890637421521	tactile	right	left	visual	NA	437.99649016	FALSE	FALSE	FALSE	FALSE	FALSE	0	FALSE	FALSE	TRUE
p05	2015	07	04	14	34	m	33	r	11.4870424379	practice	29	47.732855331	0.537574673305	tactile	right	right	visual	NA	354.442781303	FALSE	FALSE	FALSE	FALSE	FALSE	0	FALSE	FALSE	TRUE
p05	2015	07	04	14	34	m	33	r	11.4870424379	practice	30	1.46281339705	0.667977639784	tactile	left	right	visual	NA	NA	FALSE	FALSE	FALSE	FALSE	TRUE	0	FALSE	FALSE	TRUE
p05	2015	07	04	14	34	m	33	r	11.4870424379	practice	31	1.45085958199	1.34011164435	visual	left	right	tactile	NA	NA	FALSE	FALSE	FALSE	FALSE	FALSE	0	FALSE	FALSE	TRUE
p05	2015	07	04	14	34	m	33	r	11.4870424379	practice	32	1.53770848596	0.825894266589	visual	right	right	tactile	NA	NA	FALSE	FALSE	FALSE	FALSE	TRUE	0	FALSE	FALSE	FALSE
p05	2015	07	04	14	34	m	33	r	11.4870424379	practice	33	2.60114475398	0.796793224301	visual	left	left	tactile	NA	NA	FALSE	FALSE	FALSE	FALSE	TRUE	0	FALSE	FALSE	TRUE
p05	2015	07	04	14	34	m	33	r	11.4870424379	practice	34	1.37283589301	1.17310428331	visual	left	left	visual	NA	516.812298389	FALSE	FALSE	FALSE	FALSE	FALSE	0	FALSE	FALSE	TRUE
p05	2015	07	04	14	34	m	33	r	11.4870424379	practice	35	3.79120229505	0.635553759858	visual	left	right	tactile	NA	545.3924748	FALSE	FALSE	FALSE	FALSE	FALSE	0	FALSE	FALSE	TRUE
p05	2015	07	04	14	34	m	33	r	11.4870424379	practice	36	4.43357299402	1.1828569813	visual	right	left	visual	NA	482.830757333	FALSE	FALSE	FALSE	FALSE	FALSE	0	FALSE	FALSE	TRUE
p05	2015	07	04	14	34	m	33	r	11.4870424379	practice	37	1.720395707	0.622751996526	visual	left	catch	visual	NA	NA	FALSE	FALSE	FALSE	FALSE	TRUE	0	FALSE	TRUE	FALSE
p05	2015	07	04	14	34	m	33	r	11.4870424379	practice	38	4.120103931	0.721121948104	tactile	left	left	tactile	NA	355.275199574	FALSE	FALSE	FALSE	FALSE	FALSE	0	FALSE	FALSE	TRUE
p05	2015	07	04	14	34	m	33	r	11.4870424379	practice	39	3.83772056003	0.990059913818	visual	left	left	tactile	NA	392.65586785	FALSE	FALSE	FALSE	FALSE	FALSE	0	FALSE	FALSE	TRUE
p05	2015	07	04	14	34	m	33	r	11.4870424379	practice	40	3.90822491003	1.15798939055	tactile	right	right	visual	NA	NA	FALSE	FALSE	FALSE	FALSE	FALSE	0	FALSE	FALSE	TRUE
p05	2015	07	04	14	34	m	33	r	32.149041416	practice	41	23.898956128	0.744221290156	visual	right	right	tactile	voice	NA	TRUE	FALSE	FALSE	FALSE	FALSE	0	FALSE	FALSE	FALSE
p05	2015	07	04	14	34	m	33	r	32.149041416	practice	42	7.12476379698	1.49887094305	tactile	right	right	tactile	NA	NA	FALSE	FALSE	FALSE	FALSE	TRUE	0	FALSE	FALSE	FALSE
p05	2015	07	04	14	34	m	33	r	32.149041416	practice	43	2.19654445699	0.627844304226	visual	left	left	tactile	NA	341.285231465	FALSE	FALSE	FALSE	FALSE	FALSE	0	FALSE	FALSE	TRUE
p05	2015	07	04	14	34	m	33	r	32.149041416	practice	44	1.81585954002	1.06149311299	visual	left	left	visual	NA	495.947052666	FALSE	FALSE	FALSE	FALSE	FALSE	0	FALSE	FALSE	TRUE
p05	2015	07	04	14	34	m	33	r	32.149041416	practice	45	2.66627564799	1.03591684228	visual	right	right	visual	NA	276.214783371	FALSE	FALSE	FALSE	FALSE	FALSE	0	FALSE	FALSE	TRUE
p05	2015	07	04	14	34	m	33	r	32.149041416	practice	46	1.73799818399	0.795860046123	tactile	left	left	tactile	NA	NA	FALSE	FALSE	FALSE	FALSE	TRUE	0	FALSE	FALSE	FALSE
p05	2015	07	04	14	34	m	33	r	32.149041416	practice	47	0.953900535009	1.26620496078	tactile	right	right	tactile	NA	429.996197927	FALSE	FALSE	FALSE	FALSE	FALSE	0	FALSE	FALSE	TRUE
p05	2015	07	04	14	34	m	33	r	32.149041416	practice	48	2.093648487	0.881526671083	visual	left	catch	visual	NA	NA	FALSE	FALSE	FALSE	FALSE	FALSE	0	FALSE	FALSE	TRUE
p05	2015	07	04	14	34	m	33	r	32.149041416	practice	49	0.978909922997	0.523822179026	visual	left	right	tactile	NA	441.808333679	FALSE	FALSE	FALSE	FALSE	FALSE	0	FALSE	FALSE	TRUE
p05	2015	07	04	14	34	m	33	r	32.149041416	practice	50	4.32571290404	0.846730709656	visual	left	right	visual	NA	NA	FALSE	FALSE	FALSE	FALSE	TRUE	0	FALSE	TRUE	FALSE
p05	2015	07	04	14	34	m	33	r	32.149041416	practice	51	1.05956885096	0.589967066726	visual	right	left	tactile	NA	374.846832943	FALSE	FALSE	FALSE	FALSE	FALSE	0	FALSE	FALSE	TRUE
p05	2015	07	04	14	34	m	33	r	32.149041416	practice	52	5.26709669997	1.00412536781	visual	left	right	visual	NA	392.290548887	FALSE	FALSE	FALSE	FALSE	FALSE	0	FALSE	FALSE	TRUE
p05	2015	07	04	14	34	m	33	r	32.149041416	practice	53	3.51757359703	1.22514961149	tactile	left	right	visual	voice	NA	TRUE	FALSE	FALSE	FALSE	FALSE	0	FALSE	FALSE	FALSE
p05	2015	07	04	14	34	m	33	r	32.149041416	practice	54	1.59009695705	1.437590247	tactile	left	left	tactile	NA	590.315291658	FALSE	FALSE	FALSE	FALSE	FALSE	0	FALSE	FALSE	TRUE
p05	2015	07	04	14	34	m	33	r	32.149041416	practice	55	1.59559080802	1.23964970183	visual	right	left	visual	NA	421.058257867	FALSE	FALSE	FALSE	FALSE	FALSE	0	FALSE	FALSE	TRUE
p05	2015	07	04	14	34	m	33	r	220.89781316	1	1	13.258335239	1.37018881028	visual	left	right	tactile	NA	366.849924438	FALSE	FALSE	FALSE	FALSE	FALSE	0	FALSE	FALSE	TRUE
p05	2015	07	04	14	34	m	33	r	220.89781316	1	2	3.54196790396	1.16829713312	visual	right	right	visual	NA	374.019487528	FALSE	FALSE	FALSE	FALSE	FALSE	0	FALSE	FALSE	TRUE
p05	2015	07	04	14	34	m	33	r	220.89781316	1	3	0.736998106004	1.19712675167	tactile	right	left	tactile	NA	380.917513045	FALSE	FALSE	FALSE	FALSE	FALSE	0	FALSE	FALSE	TRUE
p05	2015	07	04	14	34	m	33	r	220.89781316	1	4	1.36235897901	1.43987106267	visual	right	left	visual	NA	338.621870964	FALSE	FALSE	FALSE	FALSE	FALSE	0	FALSE	FALSE	TRUE
p05	2015	07	04	14	34	m	33	r	220.89781316	1	5	0.421187766013	0.913375998593	visual	left	right	tactile	NA	366.565963079	FALSE	FALSE	FALSE	FALSE	FALSE	0	FALSE	FALSE	TRUE
p05	2015	07	04	14	34	m	33	r	220.89781316	1	6	0.517469364044	0.568997286402	tactile	left	right	tactile	NA	360.861668305	FALSE	FALSE	FALSE	FALSE	FALSE	0	FALSE	FALSE	TRUE
p05	2015	07	04	14	34	m	33	r	220.89781316	1	7	1.57009228901	1.46952038557	visual	right	left	tactile	NA	281.456550118	FALSE	FALSE	FALSE	FALSE	FALSE	0	FALSE	FALSE	TRUE
p05	2015	07	04	14	34	m	33	r	220.89781316	1	8	1.482934926	1.3103233537	visual	right	left	tactile	voice	NA	TRUE	FALSE	FALSE	FALSE	FALSE	0	FALSE	FALSE	FALSE
p05	2015	07	04	14	34	m	33	r	220.89781316	1	9	2.16209158802	0.661416863943	visual	left	left	visual	voice	NA	TRUE	FALSE	FALSE	FALSE	FALSE	0	FALSE	FALSE	FALSE
p05	2015	07	04	14	34	m	33	r	220.89781316	1	10	0.978807781998	0.539452468057	visual	right	catch	visual	voice	NA	TRUE	FALSE	FALSE	FALSE	FALSE	0	FALSE	FALSE	FALSE
p05	2015	07	04	14	34	m	33	r	220.89781316	1	11	0.539947215002	0.5483935031	tactile	left	catch	visual	voice	NA	TRUE	FALSE	FALSE	FALSE	FALSE	0	FALSE	FALSE	FALSE
p05	2015	07	04	14	34	m	33	r	220.89781316	1	12	1.60166220297	1.39246143262	tactile	right	left	visual	NA	262.131057039	FALSE	FALSE	FALSE	FALSE	FALSE	0	FALSE	FALSE	TRUE
p05	2015	07	04	14	34	m	33	r	220.89781316	1	13	1.77289488597	1.16641917247	tactile	right	catch	tactile	NA	150.081489177	FALSE	FALSE	FALSE	FALSE	FALSE	0	FALSE	FALSE	TRUE
p05	2015	07	04	14	34	m	33	r	220.89781316	1	14	2.11996566498	0.65608843448	visual	right	left	tactile	NA	381.043965172	FALSE	FALSE	FALSE	FALSE	FALSE	0	FALSE	FALSE	TRUE
p05	2015	07	04	14	34	m	33	r	220.89781316	1	15	1.70681810199	0.614500992652	tactile	right	right	visual	NA	518.448568066	FALSE	FALSE	FALSE	FALSE	FALSE	0	FALSE	FALSE	TRUE
p05	2015	07	04	14	34	m	33	r	220.89781316	1	16	1.99791581102	0.937534363688	tactile	right	left	visual	NA	426.332099945	FALSE	FALSE	FALSE	FALSE	FALSE	0	FALSE	FALSE	TRUE
p05	2015	07	04	14	34	m	33	r	220.89781316	1	17	1.65726053203	0.504174858916	tactile	left	right	visual	NA	442.591157742	FALSE	FALSE	FALSE	FALSE	FALSE	0	FALSE	FALSE	TRUE
p05	2015	07	04	14	34	m	33	r	220.89781316	1	18	1.72746877297	1.08769725045	visual	right	left	visual	NA	378.526072192	FALSE	FALSE	FALSE	FALSE	FALSE	0	FALSE	FALSE	TRUE
p05	2015	07	04	14	34	m	33	r	220.89781316	1	19	2.78399410099	1.13670725261	tactile	left	left	visual	NA	223.066594102	FALSE	FALSE	FALSE	FALSE	TRUE	0	FALSE	FALSE	TRUE
p05	2015	07	04	14	34	m	33	r	220.89781316	1	20	1.59544255398	0.676359879203	tactile	left	right	visual	NA	412.917659502	FALSE	FALSE	FALSE	FALSE	FALSE	0	FALSE	FALSE	TRUE
p05	2015	07	04	14	34	m	33	r	220.89781316	1	21	1.35588215903	1.07748410469	tactile	right	left	visual	NA	115.596632997	FALSE	FALSE	FALSE	FALSE	FALSE	0	FALSE	FALSE	TRUE
p05	2015	07	04	14	34	m	33	r	220.89781316	1	22	1.544965173	1.03426573339	visual	left	catch	visual	NA	572.906800255	FALSE	FALSE	FALSE	FALSE	TRUE	0	FALSE	FALSE	TRUE
p05	2015	07	04	14	34	m	33	r	220.89781316	1	23	1.342885727	0.708846260284	visual	left	left	tactile	NA	377.092265408	FALSE	FALSE	FALSE	FALSE	FALSE	0	FALSE	FALSE	TRUE
p05	2015	07	04	14	34	m	33	r	220.89781316	1	24	2.257567828	1.10411683188	tactile	right	left	visual	NA	464.068570756	FALSE	FALSE	FALSE	FALSE	FALSE	0	FALSE	FALSE	TRUE
p05	2015	07	04	14	34	m	33	r	220.89781316	1	25	1.40086151799	0.620153346856	tactile	left	left	tactile	NA	514.476478798	FALSE	FALSE	FALSE	FALSE	FALSE	0	FALSE	FALSE	TRUE
p05	2015	07	04	14	34	m	33	r	220.89781316	1	26	1.79605350201	0.973308128194	tactile	left	left	visual	NA	273.904492438	FALSE	FALSE	FALSE	FALSE	FALSE	0	FALSE	FALSE	TRUE
p05	2015	07	04	14	34	m	33	r	220.89781316	1	27	1.69968797901	0.787377100697	tactile	right	left	tactile	NA	405.154934037	FALSE	FALSE	FALSE	FALSE	FALSE	0	FALSE	FALSE	TRUE
p05	2015	07	04	14	34	m	33	r	220.89781316	1	28	1.56416260201	1.29389760629	tactile	right	right	visual	voice	NA	TRUE	FALSE	FALSE	FALSE	FALSE	0	FALSE	FALSE	FALSE
p05	2015	07	04	14	34	m	33	r	220.89781316	1	29	26.689836123	1.32752331179	tactile	right	right	tactile	NA	455.679900886	FALSE	FALSE	FALSE	FALSE	FALSE	0	FALSE	FALSE	TRUE
p05	2015	07	04	14	34	m	33	r	220.89781316	1	30	1.41814911203	0.981067010714	visual	right	left	visual	NA	271.330537915	FALSE	FALSE	FALSE	FALSE	FALSE	0	FALSE	FALSE	TRUE
p05	2015	07	04	14	34	m	33	r	220.89781316	1	31	1.28160170797	0.568205264135	visual	right	right	tactile	NA	354.830375582	FALSE	FALSE	FALSE	FALSE	FALSE	0	FALSE	FALSE	TRUE
p05	2015	07	04	14	34	m	33	r	220.89781316	1	32	1.506143693	1.00956159208	visual	left	catch	tactile	NA	NA	FALSE	FALSE	FALSE	FALSE	FALSE	0	FALSE	FALSE	TRUE
p05	2015	07	04	14	34	m	33	r	220.89781316	1	33	0.84916469804	1.27179716658	visual	right	right	tactile	NA	230.198965117	FALSE	FALSE	FALSE	FALSE	FALSE	0	FALSE	FALSE	TRUE
p05	2015	07	04	14	34	m	33	r	220.89781316	1	34	3.57431804197	1.05726717754	tactile	right	right	tactile	NA	395.21980111	FALSE	FALSE	FALSE	FALSE	FALSE	0	FALSE	FALSE	TRUE
p05	2015	07	04	14	34	m	33	r	220.89781316	1	35	1.51302905002	1.42350776834	visual	left	left	tactile	NA	343.671181297	FALSE	FALSE	FALSE	FALSE	FALSE	0	FALSE	FALSE	TRUE
p05	2015	07	04	14	34	m	33	r	220.89781316	1	36	1.57609944796	0.781060061904	visual	left	left	visual	NA	556.001112738	FALSE	FALSE	FALSE	FALSE	FALSE	0	FALSE	FALSE	TRUE
p05	2015	07	04	14	34	m	33	r	220.89781316	1	37	10.260336379	1.38268709337	tactile	left	catch	visual	NA	NA	FALSE	FALSE	FALSE	FALSE	FALSE	0	FALSE	FALSE	TRUE
p05	2015	07	04	14	34	m	33	r	220.89781316	1	38	3.11222883902	0.772298287348	visual	left	left	visual	NA	459.613368323	FALSE	FALSE	FALSE	FALSE	TRUE	0	FALSE	TRUE	TRUE
p05	2015	07	04	14	34	m	33	r	220.89781316	1	39	3.88003340905	0.716557978423	visual	right	catch	tactile	voice	NA	TRUE	FALSE	FALSE	FALSE	FALSE	0	FALSE	FALSE	FALSE
p05	2015	07	04	14	34	m	33	r	220.89781316	1	40	3.178523915	1.27720501664	tactile	left	right	tactile	voice	NA	TRUE	FALSE	FALSE	FALSE	FALSE	0	FALSE	FALSE	FALSE
p05	2015	07	04	14	34	m	33	r	8.08556364203	1	41	2.95387206803	1.06896580953	tactile	left	right	visual	NA	442.495653115	FALSE	FALSE	FALSE	FALSE	FALSE	0	FALSE	FALSE	TRUE
p05	2015	07	04	14	34	m	33	r	8.08556364203	1	42	1.32184140204	0.712766416007	visual	left	right	tactile	NA	315.313747677	FALSE	FALSE	FALSE	FALSE	TRUE	0	FALSE	FALSE	TRUE
p05	2015	07	04	14	34	m	33	r	8.08556364203	1	43	1.51904706203	0.753897096626	visual	left	left	visual	NA	438.029406068	FALSE	FALSE	FALSE	FALSE	FALSE	0	FALSE	FALSE	TRUE
p05	2015	07	04	14	34	m	33	r	8.08556364203	1	44	1.50670683297	0.622539528268	visual	right	right	visual	NA	361.050752399	FALSE	FALSE	FALSE	FALSE	FALSE	0	FALSE	FALSE	TRUE
p05	2015	07	04	14	34	m	33	r	8.08556364203	1	45	1.37502836698	0.904364767228	tactile	right	left	tactile	NA	35.5435564416	FALSE	FALSE	FALSE	FALSE	FALSE	0	FALSE	FALSE	TRUE
p05	2015	07	04	14	34	m	33	r	8.08556364203	1	46	1.58494077501	1.18561085652	visual	left	right	visual	NA	374.355016102	FALSE	FALSE	FALSE	FALSE	FALSE	0	FALSE	FALSE	TRUE
p05	2015	07	04	14	34	m	33	r	8.08556364203	1	47	1.56577182095	1.21912802657	visual	right	left	visual	NA	378.449241107	FALSE	FALSE	FALSE	FALSE	TRUE	0	FALSE	FALSE	TRUE
p05	2015	07	04	14	34	m	33	r	8.08556364203	1	48	1.55350195098	0.76420463487	tactile	left	catch	tactile	NA	NA	FALSE	FALSE	FALSE	FALSE	TRUE	0	FALSE	TRUE	TRUE
p05	2015	07	04	14	34	m	33	r	8.08556364203	1	49	5.18722734298	1.35763992258	visual	right	right	tactile	NA	389.454313088	FALSE	FALSE	FALSE	FALSE	FALSE	0	FALSE	FALSE	TRUE
p05	2015	07	04	14	34	m	33	r	8.08556364203	1	50	1.48850560701	0.661723281646	visual	left	left	visual	NA	438.723239989	FALSE	FALSE	FALSE	FALSE	TRUE	0	FALSE	TRUE	TRUE
p05	2015	07	04	14	34	m	33	r	8.08556364203	1	51	1.341441261	0.610463866159	tactile	left	left	visual	NA	426.768911537	FALSE	FALSE	FALSE	FALSE	TRUE	0	FALSE	FALSE	TRUE
p05	2015	07	04	14	34	m	33	r	8.08556364203	1	52	1.34822559397	1.41373323181	tactile	left	left	visual	voice	NA	TRUE	FALSE	FALSE	FALSE	FALSE	0	FALSE	FALSE	FALSE
p05	2015	07	04	14	34	m	33	r	8.08556364203	1	53	2.94603581802	1.05045541222	visual	left	right	tactile	NA	342.96047251	FALSE	FALSE	FALSE	FALSE	FALSE	0	FALSE	FALSE	TRUE
p05	2015	07	04	14	34	m	33	r	8.08556364203	1	54	2.10013311397	1.47165926977	tactile	right	right	visual	voice	NA	TRUE	FALSE	FALSE	FALSE	FALSE	0	FALSE	FALSE	FALSE
p05	2015	07	04	14	34	m	33	r	8.08556364203	1	55	2.86853174202	1.04157283664	tactile	right	left	visual	voice	NA	TRUE	FALSE	FALSE	FALSE	FALSE	0	FALSE	FALSE	FALSE
p05	2015	07	04	14	34	m	33	r	8.08556364203	1	56	4.617226534	0.657939333842	visual	left	right	tactile	NA	617.874601856	FALSE	FALSE	FALSE	FALSE	TRUE	0	FALSE	FALSE	TRUE
p05	2015	07	04	14	34	m	33	r	8.08556364203	1	57	1.36530791502	0.676049677231	visual	right	right	tactile	NA	550.269201398	FALSE	FALSE	FALSE	FALSE	FALSE	0	FALSE	FALSE	TRUE
p05	2015	07	04	14	34	m	33	r	8.08556364203	1	58	1.51816023199	1.05364893339	tactile	left	catch	tactile	NA	NA	FALSE	FALSE	FALSE	FALSE	FALSE	0	FALSE	FALSE	TRUE
p05	2015	07	04	14	34	m	33	r	8.08556364203	1	59	1.079341267	1.46526357304	visual	right	right	visual	NA	500.101911603	FALSE	FALSE	FALSE	FALSE	TRUE	0	FALSE	TRUE	TRUE
p05	2015	07	04	14	34	m	33	r	8.08556364203	1	60	1.692875573	1.21991868713	visual	right	left	tactile	NA	411.768775492	FALSE	FALSE	FALSE	FALSE	TRUE	0	FALSE	FALSE	TRUE
p05	2015	07	04	14	34	m	33	r	8.08556364203	1	61	1.738894774	0.554283051753	visual	right	left	tactile	NA	NA	FALSE	FALSE	FALSE	FALSE	FALSE	0	FALSE	FALSE	TRUE
p05	2015	07	04	14	34	m	33	r	8.08556364203	1	62	1.32721546298	1.25381624513	visual	right	left	tactile	NA	916.553686548	FALSE	FALSE	FALSE	FALSE	FALSE	0	FALSE	FALSE	TRUE
p05	2015	07	04	14	34	m	33	r	8.08556364203	1	63	4.12071780302	0.962811098047	tactile	left	left	visual	NA	483.696430631	FALSE	FALSE	FALSE	FALSE	FALSE	0	FALSE	FALSE	TRUE
p05	2015	07	04	14	34	m	33	r	8.08556364203	1	64	2.382940715	1.47916928468	visual	right	right	visual	NA	409.838424937	FALSE	FALSE	FALSE	TRUE	TRUE	0	TRUE	TRUE	TRUE
p05	2015	07	04	14	34	m	33	r	8.08556364203	1	65	5.79995474999	1.44628854925	visual	left	left	visual	NA	345.383356442	FALSE	FALSE	FALSE	FALSE	FALSE	0	FALSE	FALSE	TRUE
p05	2015	07	04	14	34	m	33	r	8.08556364203	1	66	1.58089593798	0.752259738228	tactile	right	left	tactile	NA	424.863261462	FALSE	FALSE	FALSE	FALSE	FALSE	0	FALSE	FALSE	TRUE
p05	2015	07	04	14	34	m	33	r	8.08556364203	1	67	2.494027437	0.517585836488	tactile	left	right	visual	NA	467.690111196	FALSE	FALSE	FALSE	FALSE	TRUE	0	FALSE	TRUE	TRUE
p05	2015	07	04	14	34	m	33	r	8.08556364203	1	68	1.670620822	0.795038784694	tactile	left	right	tactile	NA	414.87523698	FALSE	FALSE	FALSE	FALSE	FALSE	0	FALSE	FALSE	TRUE
p05	2015	07	04	14	34	m	33	r	8.08556364203	1	69	1.59297415998	0.59114495726	visual	left	left	visual	NA	447.535037354	FALSE	FALSE	FALSE	FALSE	FALSE	0	FALSE	FALSE	TRUE
p05	2015	07	04	14	34	m	33	r	8.08556364203	1	70	1.48105349502	1.42653594834	visual	left	catch	tactile	NA	NA	FALSE	FALSE	FALSE	FALSE	FALSE	0	FALSE	FALSE	TRUE
p05	2015	07	04	14	34	m	33	r	8.08556364203	1	71	0.85422474402	1.32829759271	visual	right	left	visual	NA	536.701319972	FALSE	FALSE	FALSE	FALSE	FALSE	0	FALSE	FALSE	TRUE
p05	2015	07	04	14	34	m	33	r	8.08556364203	1	72	4.16893959499	0.968817674593	visual	left	right	visual	NA	413.266332063	FALSE	FALSE	FALSE	FALSE	FALSE	0	FALSE	FALSE	TRUE
p05	2015	07	04	14	34	m	33	r	8.08556364203	1	73	1.45228232699	0.993030553299	visual	left	left	visual	NA	376.269716362	FALSE	FALSE	FALSE	FALSE	FALSE	0	FALSE	FALSE	TRUE
p05	2015	07	04	14	34	m	33	r	8.08556364203	1	74	1.47972033999	1.039374679	tactile	right	left	tactile	NA	357.481867657	FALSE	FALSE	FALSE	FALSE	FALSE	0	FALSE	FALSE	TRUE
p05	2015	07	04	14	34	m	33	r	8.08556364203	1	75	1.44041608501	1.44621595425	tactile	left	left	tactile	NA	419.788241386	FALSE	FALSE	FALSE	FALSE	FALSE	0	FALSE	FALSE	TRUE
p05	2015	07	04	14	34	m	33	r	8.08556364203	1	76	1.491817164	0.581637684898	visual	left	right	tactile	NA	406.170374772	FALSE	FALSE	FALSE	FALSE	FALSE	0	FALSE	FALSE	TRUE
p05	2015	07	04	14	34	m	33	r	8.08556364203	1	77	1.62164847204	0.964764695259	tactile	right	right	visual	NA	436.350555392	FALSE	FALSE	FALSE	FALSE	FALSE	0	FALSE	FALSE	TRUE
p05	2015	07	04	14	34	m	33	r	8.08556364203	1	78	1.39525240305	0.887676518744	tactile	left	left	tactile	NA	331.6769019	FALSE	FALSE	FALSE	FALSE	FALSE	0	FALSE	FALSE	TRUE
p05	2015	07	04	14	34	m	33	r	8.08556364203	1	79	1.51616079401	0.736354170037	tactile	left	right	visual	NA	450.856063631	FALSE	FALSE	FALSE	FALSE	FALSE	0	FALSE	FALSE	TRUE
p05	2015	07	04	14	34	m	33	r	8.08556364203	1	80	1.53914883698	0.6071055239	tactile	left	right	tactile	NA	445.197133813	FALSE	FALSE	FALSE	FALSE	FALSE	0	FALSE	FALSE	TRUE
p05	2015	07	04	14	34	m	33	r	13.560628265	1	81	3.14653687703	0.612556555727	visual	right	right	tactile	NA	412.129668985	FALSE	FALSE	FALSE	FALSE	FALSE	0	FALSE	FALSE	TRUE
p05	2015	07	04	14	34	m	33	r	13.560628265	1	82	1.45408201899	1.03685425019	tactile	left	left	tactile	NA	409.641530481	FALSE	FALSE	FALSE	FALSE	FALSE	0	FALSE	FALSE	TRUE
p05	2015	07	04	14	34	m	33	r	13.560628265	1	83	1.63800492999	1.25724490014	tactile	left	right	visual	voice	NA	TRUE	FALSE	FALSE	FALSE	TRUE	0	FALSE	FALSE	FALSE
p05	2015	07	04	14	34	m	33	r	13.560628265	1	84	1.83188139199	1.1536620063	tactile	right	right	tactile	NA	416.639109317	FALSE	FALSE	FALSE	FALSE	FALSE	0	FALSE	FALSE	TRUE
p05	2015	07	04	14	34	m	33	r	13.560628265	1	85	1.64774360298	0.519588397629	tactile	right	left	tactile	NA	371.219512017	FALSE	FALSE	FALSE	FALSE	FALSE	0	FALSE	FALSE	TRUE
p05	2015	07	04	14	34	m	33	r	13.560628265	1	86	1.69350569102	0.670099942921	tactile	right	left	visual	NA	396.669663722	FALSE	FALSE	FALSE	FALSE	FALSE	0	FALSE	FALSE	TRUE
p05	2015	07	04	14	34	m	33	r	13.560628265	1	87	1.63190748205	0.743839314877	tactile	right	right	visual	NA	450.543627725	FALSE	FALSE	FALSE	FALSE	FALSE	0	FALSE	FALSE	TRUE
p05	2015	07	04	14	34	m	33	r	13.560628265	1	88	1.60304524802	0.513765123876	visual	left	left	tactile	NA	492.718068825	FALSE	FALSE	FALSE	FALSE	FALSE	0	FALSE	FALSE	TRUE
p05	2015	07	04	14	34	m	33	r	13.560628265	1	89	1.717332948	0.687733693602	visual	left	right	tactile	NA	453.180212004	FALSE	FALSE	FALSE	FALSE	TRUE	0	FALSE	TRUE	TRUE
p05	2015	07	04	14	34	m	33	r	13.560628265	1	90	1.752265958	0.910162559099	visual	right	right	visual	NA	459.236513532	FALSE	FALSE	FALSE	FALSE	TRUE	0	FALSE	TRUE	TRUE
p05	2015	07	04	14	34	m	33	r	13.560628265	1	91	1.63110756699	1.3512976451	visual	right	right	visual	NA	394.358452584	FALSE	FALSE	FALSE	FALSE	FALSE	0	FALSE	FALSE	TRUE
p05	2015	07	04	14	34	m	33	r	13.560628265	1	92	1.52746861603	0.747144803273	visual	left	left	tactile	NA	416.322167381	FALSE	FALSE	FALSE	FALSE	TRUE	0	FALSE	TRUE	TRUE
p05	2015	07	04	14	34	m	33	r	13.560628265	1	93	1.73364859301	0.981117633522	tactile	right	right	visual	NA	277.672207099	FALSE	FALSE	FALSE	FALSE	FALSE	0	FALSE	FALSE	TRUE
p05	2015	07	04	14	34	m	33	r	13.560628265	1	94	1.70329918398	1.23950474958	visual	left	right	visual	NA	420.146741089	FALSE	FALSE	FALSE	FALSE	FALSE	0	FALSE	FALSE	TRUE
p05	2015	07	04	14	34	m	33	r	13.560628265	1	95	1.66709417902	0.583648229273	visual	right	catch	tactile	NA	NA	FALSE	FALSE	FALSE	FALSE	FALSE	0	FALSE	FALSE	TRUE
p05	2015	07	04	14	34	m	33	r	13.560628265	1	96	1.96094933001	1.4907605574	tactile	left	left	visual	NA	73.1739452458	FALSE	FALSE	FALSE	FALSE	TRUE	0	FALSE	FALSE	TRUE
p05	2015	07	04	14	34	m	33	r	13.560628265	1	97	1.55170323799	0.516253531431	tactile	left	left	tactile	NA	NA	FALSE	FALSE	FALSE	FALSE	FALSE	0	FALSE	FALSE	TRUE
p05	2015	07	04	14	34	m	33	r	13.560628265	1	98	1.85564615298	0.779269680914	visual	right	left	tactile	NA	394.273250771	FALSE	FALSE	FALSE	FALSE	FALSE	0	FALSE	FALSE	TRUE
p05	2015	07	04	14	34	m	33	r	13.560628265	1	99	1.56700264703	1.13229891056	tactile	left	left	visual	NA	427.622947085	FALSE	FALSE	FALSE	FALSE	FALSE	0	FALSE	FALSE	TRUE
p05	2015	07	04	14	34	m	33	r	13.560628265	1	100	1.61693386798	0.63423574011	tactile	left	right	tactile	NA	392.311483563	FALSE	FALSE	FALSE	FALSE	FALSE	0	FALSE	FALSE	TRUE
p05	2015	07	04	14	34	m	33	r	13.560628265	1	101	1.62388094101	1.36199112542	visual	right	left	visual	NA	429.161862237	FALSE	FALSE	FALSE	FALSE	TRUE	0	FALSE	FALSE	TRUE
p05	2015	07	04	14	34	m	33	r	13.560628265	1	102	1.45186555496	0.908145141871	visual	right	right	visual	NA	433.678563801	FALSE	FALSE	FALSE	TRUE	TRUE	0	TRUE	TRUE	TRUE
p05	2015	07	04	14	34	m	33	r	13.560628265	1	103	1.286532578	1.17619575727	tactile	right	right	tactile	NA	356.657159398	FALSE	FALSE	FALSE	FALSE	FALSE	0	FALSE	FALSE	TRUE
p05	2015	07	04	14	34	m	33	r	13.560628265	1	104	1.65055094799	1.37015875816	visual	right	right	visual	NA	435.016838543	FALSE	FALSE	FALSE	FALSE	FALSE	0	FALSE	FALSE	TRUE
p05	2015	07	04	14	34	m	33	r	13.560628265	1	105	4.10693707602	0.726319618984	tactile	right	right	tactile	NA	708.950222644	FALSE	FALSE	FALSE	FALSE	TRUE	0	FALSE	TRUE	TRUE
p05	2015	07	04	14	34	m	33	r	13.560628265	1	106	1.696027164	1.4744124156	visual	right	left	tactile	NA	355.835365073	FALSE	FALSE	FALSE	TRUE	TRUE	0	TRUE	TRUE	TRUE
p05	2015	07	04	14	34	m	33	r	13.560628265	1	107	6.54829314799	0.911189865564	tactile	left	right	visual	NA	423.292096122	FALSE	FALSE	FALSE	FALSE	TRUE	0	FALSE	TRUE	TRUE
p05	2015	07	04	14	34	m	33	r	13.560628265	1	108	1.61009329703	1.05366357369	tactile	right	left	visual	NA	470.441585989	FALSE	FALSE	FALSE	FALSE	FALSE	0	FALSE	FALSE	TRUE
p05	2015	07	04	14	34	m	33	r	13.560628265	1	109	1.43335377	1.45990921715	visual	left	catch	visual	NA	NA	FALSE	FALSE	FALSE	FALSE	FALSE	0	FALSE	FALSE	TRUE
p05	2015	07	04	14	34	m	33	r	13.560628265	1	110	3.77833108604	1.42310145431	visual	right	left	visual	NA	438.950284326	FALSE	FALSE	FALSE	FALSE	FALSE	0	FALSE	FALSE	TRUE
p05	2015	07	04	14	34	m	33	r	13.560628265	1	111	1.546943489	1.3850406808	tactile	left	left	tactile	NA	389.131798816	FALSE	FALSE	FALSE	FALSE	FALSE	0	FALSE	FALSE	TRUE
p05	2015	07	04	14	34	m	33	r	13.560628265	1	112	1.64352179604	1.40684027571	visual	left	left	tactile	NA	420.364543912	FALSE	FALSE	FALSE	FALSE	TRUE	0	FALSE	FALSE	TRUE
p05	2015	07	04	14	34	m	33	r	13.560628265	1	113	7.22073474003	0.835875940183	tactile	left	left	tactile	NA	474.636909494	FALSE	FALSE	FALSE	FALSE	FALSE	0	FALSE	FALSE	TRUE
p05	2015	07	04	14	34	m	33	r	13.560628265	1	114	25.704217941	1.25118302903	visual	left	right	visual	NA	544.298703666	FALSE	FALSE	FALSE	FALSE	FALSE	0	FALSE	FALSE	TRUE
p05	2015	07	04	14	34	m	33	r	13.560628265	1	115	1.623501883	1.28468387356	visual	left	right	visual	NA	549.256989034	FALSE	FALSE	FALSE	FALSE	FALSE	0	FALSE	FALSE	TRUE
p05	2015	07	04	14	34	m	33	r	13.560628265	1	116	4.42128522601	1.23268958289	tactile	right	left	tactile	NA	425.095052749	FALSE	FALSE	FALSE	FALSE	FALSE	0	FALSE	FALSE	TRUE
p05	2015	07	04	14	34	m	33	r	13.560628265	1	117	1.42160646798	0.805427738324	tactile	left	right	tactile	NA	391.553731344	FALSE	FALSE	FALSE	FALSE	TRUE	0	FALSE	TRUE	TRUE
p05	2015	07	04	14	34	m	33	r	13.560628265	1	118	1.78600598598	0.678262004056	visual	left	right	visual	NA	514.324770658	FALSE	FALSE	FALSE	FALSE	FALSE	0	FALSE	FALSE	TRUE
p05	2015	07	04	14	34	m	33	r	13.560628265	1	119	1.64031962899	0.88165168475	visual	left	left	tactile	NA	407.791399921	FALSE	FALSE	FALSE	FALSE	FALSE	0	FALSE	FALSE	TRUE
p05	2015	07	04	14	34	m	33	r	13.560628265	1	120	1.59331051202	1.33159257132	visual	right	right	tactile	NA	420.050876332	FALSE	FALSE	FALSE	FALSE	FALSE	0	FALSE	FALSE	TRUE
p05	2015	07	04	14	34	m	33	r	9.19178065	1	121	63.460060858	0.771899887313	tactile	left	right	visual	NA	526.591853413	FALSE	FALSE	FALSE	FALSE	FALSE	0	FALSE	FALSE	TRUE
p05	2015	07	04	14	34	m	33	r	9.19178065	1	122	10.959853552	0.936666600468	visual	right	left	visual	NA	395.765521156	FALSE	FALSE	FALSE	FALSE	FALSE	0	FALSE	FALSE	TRUE
p05	2015	07	04	14	34	m	33	r	9.19178065	1	123	27.886297666	0.996449394333	tactile	left	right	visual	NA	398.192451335	FALSE	FALSE	FALSE	FALSE	FALSE	0	FALSE	FALSE	TRUE
p05	2015	07	04	14	34	m	33	r	9.19178065	1	124	1.62398609298	0.968747875628	visual	left	right	visual	NA	667.737641023	FALSE	FALSE	FALSE	FALSE	TRUE	0	FALSE	TRUE	TRUE
p05	2015	07	04	14	34	m	33	r	9.19178065	1	125	1.77044441301	0.702588752649	tactile	left	left	tactile	NA	508.831197978	FALSE	FALSE	FALSE	FALSE	TRUE	0	FALSE	TRUE	TRUE
p05	2015	07	04	14	34	m	33	r	9.19178065	1	126	1.88685973804	1.19067112173	tactile	left	left	visual	NA	260.436681972	FALSE	FALSE	FALSE	FALSE	TRUE	0	FALSE	TRUE	TRUE
p05	2015	07	04	14	34	m	33	r	9.19178065	1	127	2.09647352702	1.30155526097	visual	left	right	visual	NA	448.510826682	FALSE	FALSE	FALSE	FALSE	TRUE	0	FALSE	FALSE	TRUE
p05	2015	07	04	14	34	m	33	r	9.19178065	1	128	2.02781288099	1.00906655138	visual	left	left	tactile	NA	353.587943304	FALSE	FALSE	FALSE	FALSE	FALSE	0	FALSE	FALSE	TRUE
p05	2015	07	04	14	34	m	33	r	9.19178065	1	129	2.25315121398	1.48924609434	tactile	right	right	tactile	NA	499.322664342	FALSE	FALSE	FALSE	FALSE	FALSE	0	FALSE	FALSE	TRUE
p05	2015	07	04	14	34	m	33	r	9.19178065	1	130	2.00130719703	1.15061776293	visual	right	right	tactile	NA	602.60154173	FALSE	FALSE	FALSE	FALSE	FALSE	0	FALSE	FALSE	TRUE
p05	2015	07	04	14	34	m	33	r	9.19178065	1	131	4.876618999	1.24950659218	tactile	right	right	visual	NA	489.032268524	FALSE	FALSE	FALSE	FALSE	TRUE	0	FALSE	FALSE	TRUE
p05	2015	07	04	14	34	m	33	r	9.19178065	1	132	2.08527318301	1.40660560114	tactile	right	catch	tactile	NA	NA	FALSE	FALSE	FALSE	FALSE	TRUE	0	FALSE	FALSE	TRUE
p05	2015	07	04	14	34	m	33	r	9.19178065	1	133	1.413182633	0.811443304321	visual	right	catch	visual	NA	NA	FALSE	FALSE	FALSE	FALSE	FALSE	0	FALSE	FALSE	TRUE
p05	2015	07	04	14	34	m	33	r	9.19178065	1	134	1.31600964296	1.08725828008	visual	left	right	tactile	NA	355.415145576	FALSE	FALSE	FALSE	FALSE	FALSE	0	FALSE	FALSE	TRUE
p05	2015	07	04	14	34	m	33	r	9.19178065	1	135	1.64523831801	1.15370461317	visual	right	right	tactile	NA	369.204920484	FALSE	FALSE	FALSE	FALSE	FALSE	0	FALSE	FALSE	TRUE
p05	2015	07	04	14	34	m	33	r	9.19178065	1	136	1.85240054701	1.30717371827	tactile	right	right	visual	NA	346.169784374	FALSE	FALSE	FALSE	FALSE	TRUE	0	FALSE	TRUE	TRUE
p05	2015	07	04	14	34	m	33	r	9.19178065	1	137	1.83250136097	1.00894231964	tactile	right	catch	visual	NA	NA	FALSE	FALSE	FALSE	FALSE	TRUE	0	FALSE	FALSE	TRUE
p05	2015	07	04	14	34	m	33	r	9.19178065	1	138	10.524374571	0.981167910116	tactile	left	right	tactile	NA	344.134354615	FALSE	FALSE	FALSE	FALSE	FALSE	0	FALSE	FALSE	TRUE
p05	2015	07	04	14	34	m	33	r	9.19178065	1	139	2.381108884	1.01464163048	visual	right	left	visual	NA	463.726184156	FALSE	FALSE	FALSE	FALSE	FALSE	0	FALSE	FALSE	TRUE
p05	2015	07	04	14	34	m	33	r	9.19178065	1	140	22.630746597	0.526610963112	visual	left	left	tactile	NA	NA	FALSE	FALSE	FALSE	FALSE	FALSE	0	FALSE	FALSE	TRUE
p05	2015	07	04	14	34	m	33	r	9.19178065	1	141	2.10356279602	0.910792555094	visual	right	left	tactile	NA	461.60278056	FALSE	FALSE	FALSE	FALSE	TRUE	0	FALSE	TRUE	TRUE
p05	2015	07	04	14	34	m	33	r	9.19178065	1	142	2.201173521	0.571590989279	visual	left	left	tactile	NA	616.230896325	FALSE	FALSE	FALSE	FALSE	TRUE	0	FALSE	TRUE	TRUE
p05	2015	07	04	14	34	m	33	r	9.19178065	1	143	12.6581414129	1.32087633517	visual	right	right	visual	NA	506.022823451	FALSE	FALSE	FALSE	FALSE	FALSE	0	FALSE	FALSE	TRUE
p05	2015	07	04	14	34	m	33	r	9.19178065	1	144	2.02600900305	0.703124704944	tactile	left	right	tactile	NA	369.636824704	FALSE	FALSE	FALSE	FALSE	TRUE	0	FALSE	FALSE	TRUE
p05	2015	07	04	14	34	m	33	r	9.19178065	1	145	4.01457737898	1.01393862968	tactile	right	left	visual	NA	494.670191023	FALSE	FALSE	FALSE	FALSE	TRUE	0	FALSE	FALSE	TRUE
p05	2015	07	04	14	34	m	33	r	9.19178065	1	146	1.92157050502	1.02925486454	tactile	right	left	tactile	NA	300.410642114	FALSE	FALSE	FALSE	FALSE	FALSE	0	FALSE	FALSE	TRUE
p05	2015	07	04	14	34	m	33	r	9.19178065	1	147	8.30167689902	0.93199217139	tactile	right	left	tactile	NA	484.077706293	FALSE	FALSE	FALSE	FALSE	TRUE	0	FALSE	TRUE	TRUE
p05	2015	07	04	14	34	m	33	r	9.19178065	1	148	2.04881640099	1.1271211746	visual	right	right	tactile	NA	312.419809052	FALSE	FALSE	FALSE	FALSE	FALSE	0	FALSE	FALSE	TRUE
p05	2015	07	04	14	34	m	33	r	9.19178065	1	149	1.92854086799	0.874029976642	visual	left	right	tactile	NA	328.131303017	FALSE	FALSE	FALSE	FALSE	TRUE	0	FALSE	TRUE	TRUE
p05	2015	07	04	14	34	m	33	r	9.19178065	1	150	1.73937246401	1.32819253266	tactile	right	left	visual	NA	142.104620987	FALSE	FALSE	FALSE	FALSE	FALSE	0	FALSE	FALSE	TRUE
p05	2015	07	04	14	34	m	33	r	9.19178065	1	151	4.03313994699	0.613974245943	tactile	right	right	tactile	NA	341.356271703	FALSE	FALSE	FALSE	FALSE	FALSE	0	FALSE	FALSE	TRUE
p05	2015	07	04	14	34	m	33	r	9.19178065	1	152	3.89160759299	1.30022606586	tactile	right	right	visual	NA	742.953580804	FALSE	FALSE	FALSE	FALSE	FALSE	0	FALSE	FALSE	TRUE
p05	2015	07	04	14	34	m	33	r	9.19178065	1	153	4.51528792101	0.534011629866	visual	left	right	visual	NA	491.161398764	FALSE	FALSE	FALSE	FALSE	FALSE	0	FALSE	FALSE	TRUE
p05	2015	07	04	14	34	m	33	r	9.19178065	1	154	1.982153491	0.93950819377	tactile	left	right	tactile	NA	429.079120921	FALSE	FALSE	FALSE	FALSE	FALSE	0	FALSE	FALSE	TRUE
p05	2015	07	04	14	34	m	33	r	9.19178065	1	155	1.74471254303	0.934425640131	visual	left	left	visual	NA	326.330493495	FALSE	FALSE	FALSE	FALSE	FALSE	0	FALSE	FALSE	TRUE
p05	2015	07	04	14	34	m	33	r	9.19178065	1	156	4.36609756999	0.765473328357	tactile	left	left	tactile	NA	420.828181319	FALSE	FALSE	FALSE	FALSE	TRUE	0	FALSE	TRUE	TRUE
p05	2015	07	04	14	34	m	33	r	9.19178065	1	157	6.91975567897	1.30747148525	tactile	right	right	tactile	NA	343.541632406	FALSE	FALSE	FALSE	FALSE	FALSE	0	FALSE	FALSE	TRUE
p05	2015	07	04	14	34	m	33	r	9.19178065	1	158	3.510878567	0.886837549827	tactile	right	catch	visual	NA	NA	FALSE	FALSE	FALSE	FALSE	FALSE	0	FALSE	FALSE	TRUE
p05	2015	07	04	14	34	m	33	r	9.19178065	1	159	1.25618619903	0.564368801097	tactile	left	left	visual	NA	517.377194599	FALSE	FALSE	FALSE	FALSE	TRUE	0	FALSE	TRUE	TRUE
p05	2015	07	04	14	34	m	33	r	9.19178065	1	160	2.08966845	0.968871885161	tactile	right	right	tactile	NA	413.735849492	FALSE	FALSE	FALSE	FALSE	FALSE	0	FALSE	FALSE	TRUE
p05	2015	07	04	14	34	m	33	r	25.439984938	2	1	7.15901864896	0.644649926661	visual	left	right	visual	NA	434.805782977	FALSE	FALSE	FALSE	FALSE	FALSE	0	FALSE	FALSE	TRUE
p05	2015	07	04	14	34	m	33	r	25.439984938	2	2	1.44312996103	1.13380982206	tactile	left	right	tactile	NA	349.307926663	FALSE	FALSE	FALSE	FALSE	FALSE	0	FALSE	FALSE	TRUE
p05	2015	07	04	14	34	m	33	r	25.439984938	2	3	1.65234992898	1.10724051722	visual	left	left	tactile	NA	452.173659462	FALSE	FALSE	FALSE	FALSE	TRUE	0	FALSE	FALSE	TRUE
p05	2015	07	04	14	34	m	33	r	25.439984938	2	4	2.480303091	0.622274231254	tactile	right	right	tactile	NA	459.012756357	FALSE	FALSE	FALSE	FALSE	FALSE	0	FALSE	FALSE	TRUE
p05	2015	07	04	14	34	m	33	r	25.439984938	2	5	1.72369954799	1.19878625579	tactile	right	catch	visual	NA	NA	FALSE	FALSE	FALSE	FALSE	FALSE	0	FALSE	FALSE	TRUE
p05	2015	07	04	14	34	m	33	r	25.439984938	2	6	1.335744265	1.39088913549	tactile	right	left	visual	NA	362.614701153	FALSE	FALSE	FALSE	FALSE	FALSE	0	FALSE	FALSE	TRUE
p05	2015	07	04	14	34	m	33	r	25.439984938	2	7	2.02076549199	0.561316980139	tactile	left	catch	tactile	NA	NA	FALSE	FALSE	FALSE	FALSE	FALSE	0	FALSE	FALSE	TRUE
p05	2015	07	04	14	34	m	33	r	25.439984938	2	8	0.855272093031	0.760743908906	tactile	right	left	visual	NA	412.535878713	FALSE	FALSE	FALSE	FALSE	FALSE	0	FALSE	FALSE	TRUE
p05	2015	07	04	14	34	m	33	r	25.439984938	2	9	2.03286717198	1.3343288777	visual	right	right	tactile	NA	485.742722987	FALSE	FALSE	FALSE	FALSE	FALSE	0	FALSE	FALSE	TRUE
p05	2015	07	04	14	34	m	33	r	25.439984938	2	10	3.05760960601	0.624830638815	visual	right	left	tactile	NA	471.041579847	FALSE	FALSE	FALSE	FALSE	FALSE	0	FALSE	FALSE	TRUE
p05	2015	07	04	14	34	m	33	r	25.439984938	2	11	2.03569274	0.660550712617	tactile	left	right	visual	NA	489.365870017	FALSE	FALSE	FALSE	FALSE	FALSE	0	FALSE	FALSE	TRUE
p05	2015	07	04	14	34	m	33	r	25.439984938	2	12	1.89995882503	0.916059684737	visual	left	right	visual	NA	392.578009923	FALSE	FALSE	FALSE	FALSE	FALSE	0	FALSE	FALSE	TRUE
p05	2015	07	04	14	34	m	33	r	25.439984938	2	13	1.749129806	0.874718886736	tactile	right	right	visual	NA	410.08818493	FALSE	FALSE	FALSE	FALSE	FALSE	0	FALSE	FALSE	TRUE
p05	2015	07	04	14	34	m	33	r	25.439984938	2	14	1.49030771898	1.13026110741	visual	right	catch	tactile	NA	NA	FALSE	FALSE	FALSE	FALSE	FALSE	0	FALSE	FALSE	TRUE
p05	2015	07	04	14	34	m	33	r	25.439984938	2	15	0.698188510025	0.810186557398	tactile	right	right	visual	NA	450.446728268	FALSE	FALSE	FALSE	FALSE	FALSE	0	FALSE	FALSE	TRUE
p05	2015	07	04	14	34	m	33	r	25.439984938	2	16	2.44413275097	1.33213882079	visual	left	left	visual	NA	380.098399881	FALSE	FALSE	FALSE	FALSE	FALSE	0	FALSE	FALSE	TRUE
p05	2015	07	04	14	34	m	33	r	25.439984938	2	17	1.64375242102	0.834239849048	visual	left	right	tactile	NA	463.681819616	FALSE	FALSE	FALSE	FALSE	FALSE	0	FALSE	FALSE	TRUE
p05	2015	07	04	14	34	m	33	r	25.439984938	2	18	1.61509614898	1.34592642402	visual	right	right	tactile	NA	400.454414601	FALSE	FALSE	FALSE	FALSE	FALSE	0	FALSE	FALSE	TRUE
p05	2015	07	04	14	34	m	33	r	25.439984938	2	19	1.59200646199	1.36048891595	visual	right	left	tactile	NA	391.067368735	FALSE	FALSE	FALSE	FALSE	FALSE	0	FALSE	FALSE	TRUE
p05	2015	07	04	14	34	m	33	r	25.439984938	2	20	1.425660084	1.39601754019	visual	left	right	tactile	NA	355.997967476	FALSE	FALSE	FALSE	FALSE	FALSE	0	FALSE	FALSE	TRUE
p05	2015	07	04	14	34	m	33	r	25.439984938	2	21	1.47879996902	0.994470981058	visual	left	left	visual	NA	564.369463595	FALSE	FALSE	FALSE	FALSE	FALSE	0	FALSE	FALSE	TRUE
p05	2015	07	04	14	34	m	33	r	25.439984938	2	22	3.91911762097	0.507545527394	visual	left	right	tactile	NA	675.326071272	FALSE	FALSE	FALSE	FALSE	TRUE	0	FALSE	TRUE	TRUE
p05	2015	07	04	14	34	m	33	r	25.439984938	2	23	1.22059019102	0.980791557772	visual	left	right	tactile	NA	314.965652942	FALSE	FALSE	FALSE	FALSE	FALSE	0	FALSE	FALSE	TRUE
p05	2015	07	04	14	34	m	33	r	25.439984938	2	24	1.43581673398	0.52394295004	visual	right	right	visual	NA	472.057805571	FALSE	FALSE	FALSE	FALSE	FALSE	0	FALSE	FALSE	TRUE
p05	2015	07	04	14	34	m	33	r	25.439984938	2	25	1.40027467196	1.29274512145	visual	right	right	visual	NA	358.97531017	FALSE	FALSE	FALSE	FALSE	TRUE	0	FALSE	FALSE	TRUE
p05	2015	07	04	14	34	m	33	r	25.439984938	2	26	1.27720942302	1.48339759094	visual	left	catch	tactile	NA	174.323284766	FALSE	FALSE	FALSE	FALSE	FALSE	0	FALSE	FALSE	TRUE
p05	2015	07	04	14	34	m	33	r	25.439984938	2	27	1.55217140296	1.21968415438	tactile	right	left	tactile	NA	364.327133284	FALSE	FALSE	FALSE	FALSE	FALSE	0	FALSE	FALSE	TRUE
p05	2015	07	04	14	34	m	33	r	25.439984938	2	28	1.513350536	1.32169577723	tactile	left	right	visual	NA	343.065433437	FALSE	FALSE	FALSE	FALSE	FALSE	0	FALSE	FALSE	TRUE
p05	2015	07	04	14	34	m	33	r	25.439984938	2	29	1.49016346398	1.01983335621	tactile	right	left	tactile	NA	360.225701472	FALSE	FALSE	FALSE	FALSE	FALSE	0	FALSE	FALSE	TRUE
p05	2015	07	04	14	34	m	33	r	25.439984938	2	30	4.78727530199	0.989912022238	visual	right	catch	tactile	NA	NA	FALSE	FALSE	FALSE	FALSE	TRUE	0	FALSE	FALSE	TRUE
p05	2015	07	04	14	34	m	33	r	25.439984938	2	31	0.918331135006	1.15557576352	tactile	left	right	visual	NA	664.959397167	FALSE	FALSE	FALSE	FALSE	TRUE	0	FALSE	TRUE	TRUE
p05	2015	07	04	14	34	m	33	r	25.439984938	2	32	1.731183002	1.10061148557	visual	right	right	tactile	NA	371.000220126	FALSE	FALSE	FALSE	FALSE	TRUE	0	FALSE	TRUE	TRUE
p05	2015	07	04	14	34	m	33	r	25.439984938	2	33	1.517498656	1.06241649102	visual	left	right	visual	NA	429.125331633	FALSE	FALSE	FALSE	FALSE	FALSE	0	FALSE	FALSE	TRUE
p05	2015	07	04	14	34	m	33	r	25.439984938	2	34	1.52475882205	1.17703279316	tactile	left	catch	visual	NA	NA	FALSE	FALSE	FALSE	FALSE	FALSE	0	FALSE	FALSE	TRUE
p05	2015	07	04	14	34	m	33	r	25.439984938	2	35	1.21554294502	0.503574792523	visual	left	left	visual	NA	557.327738148	FALSE	FALSE	FALSE	FALSE	TRUE	0	FALSE	TRUE	TRUE
p05	2015	07	04	14	34	m	33	r	25.439984938	2	36	1.59750384797	0.621996962065	tactile	left	right	tactile	NA	420.848358597	FALSE	FALSE	FALSE	FALSE	FALSE	0	FALSE	FALSE	TRUE
p05	2015	07	04	14	34	m	33	r	25.439984938	2	37	1.74022906995	0.53146293175	visual	right	right	visual	NA	478.809368913	FALSE	FALSE	FALSE	FALSE	FALSE	0	FALSE	FALSE	TRUE
p05	2015	07	04	14	34	m	33	r	25.439984938	2	38	1.734987178	1.35773735696	visual	left	right	visual	NA	416.836811695	FALSE	FALSE	FALSE	FALSE	TRUE	0	FALSE	FALSE	TRUE
p05	2015	07	04	14	34	m	33	r	25.439984938	2	39	1.82985727198	1.28088315676	tactile	right	left	visual	NA	452.114217915	FALSE	FALSE	FALSE	FALSE	TRUE	0	FALSE	FALSE	TRUE
p05	2015	07	04	14	34	m	33	r	25.439984938	2	40	1.53798786196	1.30124332659	visual	right	left	tactile	NA	492.499374086	FALSE	FALSE	FALSE	FALSE	TRUE	0	FALSE	TRUE	TRUE
p05	2015	07	04	14	34	m	33	r	4.65464207	2	41	9.32255388104	0.705028943964	visual	right	right	visual	NA	480.773982708	FALSE	FALSE	FALSE	FALSE	FALSE	0	FALSE	FALSE	TRUE
p05	2015	07	04	14	34	m	33	r	4.65464207	2	42	1.72247694799	0.904717836565	tactile	left	left	tactile	NA	662.867828098	FALSE	FALSE	FALSE	FALSE	TRUE	0	FALSE	TRUE	TRUE
p05	2015	07	04	14	34	m	33	r	4.65464207	2	43	4.33731570502	1.0115365441	visual	right	left	visual	NA	428.844487586	FALSE	FALSE	FALSE	FALSE	FALSE	0	FALSE	FALSE	TRUE
p05	2015	07	04	14	34	m	33	r	4.65464207	2	44	1.66520928004	0.838188623467	visual	right	left	tactile	NA	374.56649018	FALSE	FALSE	FALSE	FALSE	FALSE	0	FALSE	FALSE	TRUE
p05	2015	07	04	14	34	m	33	r	4.65464207	2	45	1.80818593397	0.925498086403	visual	left	left	tactile	NA	411.004299298	FALSE	FALSE	FALSE	FALSE	FALSE	0	FALSE	FALSE	TRUE
p05	2015	07	04	14	34	m	33	r	4.65464207	2	46	1.69366628805	0.71116600692	tactile	right	catch	tactile	NA	NA	FALSE	FALSE	FALSE	FALSE	TRUE	0	FALSE	FALSE	TRUE
p05	2015	07	04	14	34	m	33	r	4.65464207	2	47	3.82457591902	0.583499011766	tactile	right	catch	visual	NA	NA	FALSE	FALSE	FALSE	FALSE	TRUE	0	FALSE	TRUE	TRUE
p05	2015	07	04	14	34	m	33	r	4.65464207	2	48	1.86900882801	1.15330774622	visual	left	right	tactile	NA	364.534601453	FALSE	FALSE	FALSE	FALSE	TRUE	0	FALSE	FALSE	TRUE
p05	2015	07	04	14	34	m	33	r	4.65464207	2	49	1.71566722001	1.27016550065	tactile	right	left	tactile	NA	355.353327002	FALSE	FALSE	FALSE	FALSE	TRUE	0	FALSE	TRUE	TRUE
p05	2015	07	04	14	34	m	33	r	4.65464207	2	50	5.963464092	1.39652679083	tactile	left	right	tactile	NA	376.538622833	FALSE	FALSE	FALSE	FALSE	TRUE	0	FALSE	FALSE	TRUE
p05	2015	07	04	14	34	m	33	r	4.65464207	2	51	3.69660975301	0.543473252851	visual	left	right	tactile	NA	507.964115823	FALSE	FALSE	FALSE	FALSE	TRUE	0	FALSE	TRUE	TRUE
p05	2015	07	04	14	34	m	33	r	4.65464207	2	52	1.62268222304	1.36980032461	visual	left	left	visual	NA	476.335186046	FALSE	FALSE	FALSE	FALSE	TRUE	0	FALSE	FALSE	TRUE
p05	2015	07	04	14	34	m	33	r	4.65464207	2	53	1.36326053698	1.18277146967	tactile	left	right	visual	NA	399.32609594	FALSE	FALSE	FALSE	FALSE	TRUE	0	FALSE	TRUE	TRUE
p05	2015	07	04	14	34	m	33	r	4.65464207	2	54	3.03594551701	0.77217214332	tactile	left	right	visual	NA	373.424111283	FALSE	FALSE	FALSE	FALSE	FALSE	0	FALSE	FALSE	TRUE
p05	2015	07	04	14	34	m	33	r	4.65464207	2	55	1.60842075601	1.09399097377	tactile	left	left	visual	NA	395.36625793	FALSE	FALSE	FALSE	FALSE	TRUE	0	FALSE	TRUE	TRUE
p05	2015	07	04	14	34	m	33	r	4.65464207	2	56	1.434923033	0.519579564669	visual	right	left	tactile	NA	583.341963997	FALSE	FALSE	FALSE	FALSE	FALSE	0	FALSE	FALSE	TRUE
p05	2015	07	04	14	34	m	33	r	4.65464207	2	57	1.70719910401	1.31318695364	visual	left	left	tactile	NA	296.21273902	FALSE	FALSE	FALSE	FALSE	FALSE	0	FALSE	FALSE	TRUE
p05	2015	07	04	14	34	m	33	r	4.65464207	2	58	1.75117520697	1.33906120961	tactile	right	left	visual	NA	449.900727021	FALSE	FALSE	FALSE	FALSE	FALSE	0	FALSE	FALSE	TRUE
p05	2015	07	04	14	34	m	33	r	4.65464207	2	59	1.52021475002	0.562396362595	visual	right	left	visual	NA	442.420216044	FALSE	FALSE	FALSE	FALSE	TRUE	0	FALSE	TRUE	TRUE
p05	2015	07	04	14	34	m	33	r	4.65464207	2	60	1.61441671103	1.18281571456	visual	left	right	visual	NA	336.174828059	FALSE	FALSE	FALSE	FALSE	FALSE	0	FALSE	FALSE	TRUE
p05	2015	07	04	14	34	m	33	r	4.65464207	2	61	14.458655533	1.16488502907	visual	right	left	visual	voice	NA	TRUE	FALSE	FALSE	FALSE	FALSE	0	FALSE	FALSE	FALSE
p05	2015	07	04	14	34	m	33	r	4.65464207	2	62	0.538252131024	1.32327880133	tactile	right	left	tactile	voice	NA	TRUE	FALSE	FALSE	FALSE	FALSE	0	FALSE	FALSE	FALSE
p05	2015	07	04	14	34	m	33	r	4.65464207	2	63	2.182984263	1.28554702709	tactile	left	right	visual	NA	538.436643546	FALSE	FALSE	FALSE	FALSE	TRUE	0	FALSE	FALSE	TRUE
p05	2015	07	04	14	34	m	33	r	4.65464207	2	64	5.98399109399	1.27706642043	visual	right	catch	visual	NA	NA	FALSE	FALSE	FALSE	FALSE	FALSE	0	FALSE	FALSE	TRUE
p05	2015	07	04	14	34	m	33	r	4.65464207	2	65	1.29936692398	0.868600291243	visual	right	right	visual	NA	592.747540388	FALSE	FALSE	FALSE	FALSE	FALSE	0	FALSE	FALSE	TRUE
p05	2015	07	04	14	34	m	33	r	4.65464207	2	66	1.78609613696	0.919690150112	tactile	left	right	tactile	NA	688.985081506	FALSE	FALSE	FALSE	FALSE	FALSE	0	FALSE	FALSE	TRUE
p05	2015	07	04	14	34	m	33	r	4.65464207	2	67	3.64488116605	0.958474362683	visual	left	left	visual	NA	737.415667973	FALSE	FALSE	FALSE	FALSE	FALSE	0	FALSE	FALSE	TRUE
p05	2015	07	04	14	34	m	33	r	4.65464207	2	68	1.58651494101	1.16684264546	visual	right	right	tactile	NA	NA	FALSE	FALSE	FALSE	FALSE	TRUE	0	FALSE	TRUE	TRUE
p05	2015	07	04	14	34	m	33	r	4.65464207	2	69	2.32273455797	1.30134301734	tactile	right	right	visual	NA	610.161434335	FALSE	FALSE	FALSE	FALSE	TRUE	0	FALSE	TRUE	TRUE
p05	2015	07	04	14	34	m	33	r	4.65464207	2	70	1.66803894902	0.621457440921	visual	right	left	visual	NA	609.507548739	FALSE	FALSE	FALSE	FALSE	TRUE	0	FALSE	TRUE	TRUE
p05	2015	07	04	14	34	m	33	r	4.65464207	2	71	1.51320319099	0.888315890287	tactile	left	left	tactile	NA	432.074721379	FALSE	FALSE	FALSE	FALSE	TRUE	0	FALSE	TRUE	TRUE
p05	2015	07	04	14	34	m	33	r	4.65464207	2	72	1.62653278001	1.30034868875	tactile	right	right	tactile	NA	244.17947192	FALSE	FALSE	FALSE	FALSE	FALSE	0	FALSE	FALSE	TRUE
p05	2015	07	04	14	34	m	33	r	4.65464207	2	73	1.71188476001	1.07275114693	tactile	left	left	tactile	NA	352.358345757	FALSE	FALSE	FALSE	FALSE	FALSE	0	FALSE	FALSE	TRUE
p05	2015	07	04	14	34	m	33	r	4.65464207	2	74	1.88181987801	1.24724943327	tactile	left	right	visual	NA	526.346805389	FALSE	FALSE	FALSE	FALSE	FALSE	0	FALSE	FALSE	TRUE
p05	2015	07	04	14	34	m	33	r	4.65464207	2	75	1.56317120499	0.935562685191	tactile	right	left	visual	NA	393.328134436	FALSE	FALSE	FALSE	FALSE	FALSE	0	FALSE	FALSE	TRUE
p05	2015	07	04	14	34	m	33	r	4.65464207	2	76	1.71550515003	0.749319561356	visual	left	catch	visual	NA	NA	FALSE	FALSE	FALSE	FALSE	TRUE	0	FALSE	TRUE	TRUE
p05	2015	07	04	14	34	m	33	r	4.65464207	2	77	1.592382523	0.737524249833	tactile	right	right	visual	NA	456.576028839	FALSE	FALSE	FALSE	FALSE	FALSE	0	FALSE	FALSE	TRUE
p05	2015	07	04	14	34	m	33	r	4.65464207	2	78	1.64626162499	0.963625834848	tactile	right	right	tactile	NA	421.115291829	FALSE	FALSE	FALSE	FALSE	TRUE	0	FALSE	FALSE	TRUE
p05	2015	07	04	14	34	m	33	r	4.65464207	2	79	2.082031767	0.769329845939	visual	left	left	tactile	NA	328.057298728	FALSE	FALSE	FALSE	FALSE	TRUE	0	FALSE	FALSE	TRUE
p05	2015	07	04	14	34	m	33	r	4.65464207	2	80	2.02683051798	0.955256370283	visual	left	right	tactile	NA	346.127161349	FALSE	FALSE	FALSE	FALSE	TRUE	0	FALSE	TRUE	TRUE
p05	2015	07	04	14	34	m	33	r	7.30907648103	2	81	5.44633708801	0.524725633549	visual	left	left	visual	NA	370.783171093	FALSE	FALSE	FALSE	FALSE	TRUE	0	FALSE	FALSE	TRUE
p05	2015	07	04	14	34	m	33	r	7.30907648103	2	82	1.92590507399	0.932111225762	tactile	left	left	visual	NA	331.785121874	FALSE	FALSE	FALSE	FALSE	FALSE	0	FALSE	FALSE	TRUE
p05	2015	07	04	14	34	m	33	r	7.30907648103	2	83	1.70111016795	0.550288227661	visual	right	right	visual	NA	425.89115497	FALSE	FALSE	FALSE	FALSE	FALSE	0	FALSE	FALSE	TRUE
p05	2015	07	04	14	34	m	33	r	7.30907648103	2	84	1.53197858896	1.16388770096	visual	right	right	tactile	NA	234.404496732	FALSE	FALSE	FALSE	FALSE	FALSE	0	FALSE	FALSE	TRUE
p05	2015	07	04	14	34	m	33	r	7.30907648103	2	85	1.70415632299	1.47266737642	visual	right	right	tactile	NA	657.581171254	FALSE	FALSE	FALSE	FALSE	TRUE	0	FALSE	TRUE	TRUE
p05	2015	07	04	14	34	m	33	r	7.30907648103	2	86	1.657797519	0.788325834216	tactile	left	left	tactile	NA	336.216405442	FALSE	FALSE	FALSE	FALSE	FALSE	0	FALSE	FALSE	TRUE
p05	2015	07	04	14	34	m	33	r	7.30907648103	2	87	1.50482887798	1.04635762747	visual	left	right	visual	NA	437.861835177	FALSE	FALSE	FALSE	FALSE	TRUE	0	FALSE	FALSE	TRUE
p05	2015	07	04	14	34	m	33	r	7.30907648103	2	88	1.48782660405	0.774554910705	visual	left	right	visual	NA	489.299647918	FALSE	FALSE	FALSE	FALSE	FALSE	0	FALSE	FALSE	TRUE
p05	2015	07	04	14	34	m	33	r	7.30907648103	2	89	1.74217482697	0.642147492871	visual	right	right	visual	NA	484.240706835	FALSE	FALSE	FALSE	FALSE	TRUE	0	FALSE	TRUE	TRUE
p05	2015	07	04	14	34	m	33	r	7.30907648103	2	90	1.61909098399	1.33038511287	visual	left	left	visual	NA	438.704838802	FALSE	FALSE	FALSE	FALSE	TRUE	0	FALSE	FALSE	TRUE
p05	2015	07	04	14	34	m	33	r	7.30907648103	2	91	1.869689424	0.812785060552	visual	right	right	tactile	NA	397.95397711	FALSE	FALSE	FALSE	FALSE	FALSE	0	FALSE	FALSE	TRUE
p05	2015	07	04	14	34	m	33	r	7.30907648103	2	92	1.63120551	0.810642709227	visual	left	left	tactile	NA	472.880541463	FALSE	FALSE	FALSE	FALSE	TRUE	0	FALSE	TRUE	TRUE
p05	2015	07	04	14	34	m	33	r	7.30907648103	2	93	1.62530386902	1.1786390538	tactile	right	catch	tactile	NA	340.331405809	FALSE	FALSE	FALSE	FALSE	FALSE	0	FALSE	FALSE	TRUE
p05	2015	07	04	14	34	m	33	r	7.30907648103	2	94	1.77080623101	0.841384374973	tactile	left	left	tactile	NA	441.781094763	FALSE	FALSE	FALSE	FALSE	TRUE	0	FALSE	TRUE	TRUE
p05	2015	07	04	14	34	m	33	r	7.30907648103	2	95	1.67518669402	1.09660982141	visual	right	right	visual	NA	631.634062272	FALSE	FALSE	FALSE	FALSE	TRUE	0	FALSE	TRUE	TRUE
p05	2015	07	04	14	34	m	33	r	7.30907648103	2	96	1.50862353598	1.49545212909	tactile	right	right	visual	NA	468.429314555	FALSE	FALSE	FALSE	FALSE	FALSE	0	FALSE	FALSE	TRUE
p05	2015	07	04	14	34	m	33	r	7.30907648103	2	97	1.48118769599	0.571092559942	tactile	left	left	visual	NA	428.582154738	FALSE	FALSE	FALSE	FALSE	FALSE	0	FALSE	FALSE	TRUE
p05	2015	07	04	14	34	m	33	r	7.30907648103	2	98	3.92589605099	1.15160667761	tactile	left	left	visual	NA	394.759618037	FALSE	FALSE	FALSE	FALSE	FALSE	0	FALSE	FALSE	TRUE
p05	2015	07	04	14	34	m	33	r	7.30907648103	2	99	1.86003505002	0.981140998132	tactile	left	right	tactile	NA	348.31645852	FALSE	FALSE	FALSE	FALSE	TRUE	0	FALSE	TRUE	TRUE
p05	2015	07	04	14	34	m	33	r	7.30907648103	2	100	1.850886436	0.71918812251	tactile	left	left	tactile	NA	407.212875201	FALSE	FALSE	FALSE	FALSE	FALSE	0	FALSE	FALSE	TRUE
p05	2015	07	04	14	34	m	33	r	7.30907648103	2	101	1.61305317201	0.701783280574	visual	left	left	visual	NA	465.44918709	FALSE	FALSE	FALSE	FALSE	FALSE	0	FALSE	FALSE	TRUE
p05	2015	07	04	14	34	m	33	r	7.30907648103	2	102	1.70272448403	0.609731316207	tactile	right	right	visual	NA	395.752707438	FALSE	FALSE	FALSE	FALSE	FALSE	0	FALSE	FALSE	TRUE
p05	2015	07	04	14	34	m	33	r	7.30907648103	2	103	11.75754071	1.45639835239	tactile	left	left	tactile	NA	409.380969242	FALSE	FALSE	FALSE	FALSE	FALSE	0	FALSE	FALSE	TRUE
p05	2015	07	04	14	34	m	33	r	7.30907648103	2	104	1.83530182001	1.18655380293	tactile	right	left	visual	NA	497.000318777	FALSE	FALSE	FALSE	FALSE	TRUE	0	FALSE	TRUE	TRUE
p05	2015	07	04	14	34	m	33	r	7.30907648103	2	105	6.77111264301	0.697052027798	tactile	right	right	visual	NA	437.407567864	FALSE	FALSE	FALSE	FALSE	FALSE	0	FALSE	FALSE	TRUE
p05	2015	07	04	14	34	m	33	r	7.30907648103	2	106	1.76909460896	1.11082181226	visual	right	left	visual	NA	402.035222389	FALSE	FALSE	FALSE	FALSE	FALSE	0	FALSE	FALSE	TRUE
p05	2015	07	04	14	34	m	33	r	7.30907648103	2	107	1.59553639102	0.563140267568	visual	right	left	tactile	NA	417.709866131	FALSE	FALSE	FALSE	FALSE	FALSE	0	FALSE	FALSE	TRUE
p05	2015	07	04	14	34	m	33	r	7.30907648103	2	108	1.71474134299	1.42952815623	tactile	left	right	tactile	NA	384.781671397	FALSE	FALSE	FALSE	FALSE	TRUE	0	FALSE	TRUE	TRUE
p05	2015	07	04	14	34	m	33	r	7.30907648103	2	109	1.71470085497	1.44495362396	tactile	right	right	visual	NA	464.913016651	FALSE	FALSE	FALSE	FALSE	FALSE	0	FALSE	FALSE	TRUE
p05	2015	07	04	14	34	m	33	r	7.30907648103	2	110	2.63048947504	1.36167958902	tactile	left	catch	tactile	NA	NA	FALSE	FALSE	FALSE	FALSE	FALSE	0	FALSE	FALSE	TRUE
p05	2015	07	04	14	34	m	33	r	7.30907648103	2	111	1.27480094403	0.594786322522	tactile	left	left	visual	NA	579.963704164	FALSE	FALSE	FALSE	FALSE	TRUE	0	FALSE	TRUE	TRUE
p05	2015	07	04	14	34	m	33	r	7.30907648103	2	112	1.44579827401	0.886312842222	tactile	left	right	visual	NA	473.658107512	FALSE	FALSE	FALSE	FALSE	TRUE	0	FALSE	FALSE	TRUE
p05	2015	07	04	14	34	m	33	r	7.30907648103	2	113	1.59905242402	0.896293019576	visual	right	right	tactile	NA	399.45446304	FALSE	FALSE	FALSE	FALSE	TRUE	0	FALSE	TRUE	TRUE
p05	2015	07	04	14	34	m	33	r	7.30907648103	2	114	1.59409003996	0.833161783258	visual	right	left	tactile	NA	514.061577385	FALSE	FALSE	FALSE	FALSE	TRUE	0	FALSE	TRUE	TRUE
p05	2015	07	04	14	34	m	33	r	7.30907648103	2	115	1.55622185598	1.24618258966	tactile	right	left	visual	NA	390.041264007	FALSE	FALSE	FALSE	FALSE	TRUE	0	FALSE	FALSE	TRUE
p05	2015	07	04	14	34	m	33	r	7.30907648103	2	116	1.49543278402	0.621195539301	visual	right	left	tactile	NA	502.049523348	FALSE	FALSE	FALSE	FALSE	FALSE	0	FALSE	FALSE	TRUE
p05	2015	07	04	14	34	m	33	r	7.30907648103	2	117	1.42338518397	0.521568723435	visual	left	left	visual	NA	421.45970522	FALSE	FALSE	FALSE	FALSE	FALSE	0	FALSE	FALSE	TRUE
p05	2015	07	04	14	34	m	33	r	7.30907648103	2	118	1.66072108399	0.630139369978	tactile	right	right	tactile	NA	405.43930768	FALSE	FALSE	FALSE	FALSE	FALSE	0	FALSE	FALSE	TRUE
p05	2015	07	04	14	34	m	33	r	7.30907648103	2	119	1.41864121001	1.30223957174	visual	left	left	tactile	NA	353.804364917	FALSE	FALSE	FALSE	FALSE	FALSE	0	FALSE	FALSE	TRUE
p05	2015	07	04	14	34	m	33	r	7.30907648103	2	120	1.39424681099	1.30825098157	visual	right	left	visual	NA	461.124719062	FALSE	FALSE	FALSE	FALSE	TRUE	0	FALSE	TRUE	TRUE
p05	2015	07	04	14	34	m	33	r	5.00336386904	2	121	5.55602007499	1.47432090723	visual	left	right	visual	NA	433.650961379	FALSE	FALSE	FALSE	FALSE	TRUE	0	FALSE	FALSE	TRUE
p05	2015	07	04	14	34	m	33	r	5.00336386904	2	122	1.88455768197	1.03463702437	visual	right	catch	visual	NA	NA	FALSE	FALSE	FALSE	FALSE	FALSE	0	FALSE	FALSE	TRUE
p05	2015	07	04	14	34	m	33	r	5.00336386904	2	123	0.796509864973	1.14295667287	tactile	right	right	tactile	NA	470.610400778	FALSE	FALSE	FALSE	FALSE	FALSE	0	FALSE	FALSE	TRUE
p05	2015	07	04	14	34	m	33	r	5.00336386904	2	124	3.29852610402	0.626311917008	tactile	left	right	visual	NA	602.989659586	FALSE	FALSE	FALSE	FALSE	FALSE	0	FALSE	FALSE	TRUE
p05	2015	07	04	14	34	m	33	r	5.00336386904	2	125	1.54207790003	1.2274793651	visual	right	right	visual	NA	377.017382591	FALSE	FALSE	FALSE	FALSE	FALSE	0	FALSE	FALSE	TRUE
p05	2015	07	04	14	34	m	33	r	5.00336386904	2	126	3.72295560199	0.963517672428	visual	right	left	visual	NA	340.425406233	FALSE	FALSE	FALSE	FALSE	FALSE	0	FALSE	FALSE	TRUE
p05	2015	07	04	14	34	m	33	r	5.00336386904	2	127	1.61811186996	1.44432166801	tactile	right	left	tactile	NA	403.005511616	FALSE	FALSE	FALSE	FALSE	TRUE	0	FALSE	TRUE	TRUE
p05	2015	07	04	14	34	m	33	r	5.00336386904	2	128	1.72561052098	0.951116647188	visual	left	right	tactile	NA	331.329913519	FALSE	FALSE	FALSE	FALSE	TRUE	0	FALSE	TRUE	TRUE
p05	2015	07	04	14	34	m	33	r	5.00336386904	2	129	1.64684556401	1.15261825712	tactile	right	left	tactile	NA	305.13738055	FALSE	FALSE	FALSE	FALSE	TRUE	0	FALSE	FALSE	TRUE
p05	2015	07	04	14	34	m	33	r	5.00336386904	2	130	1.74921789096	0.584898031547	tactile	right	left	visual	NA	488.801186148	FALSE	FALSE	FALSE	FALSE	FALSE	0	FALSE	FALSE	TRUE
p05	2015	07	04	14	34	m	33	r	5.00336386904	2	131	1.679370414	0.669018860525	visual	left	left	tactile	NA	423.542169156	FALSE	FALSE	FALSE	FALSE	FALSE	0	FALSE	FALSE	TRUE
p05	2015	07	04	14	34	m	33	r	5.00336386904	2	132	1.73703487898	0.827758935348	tactile	left	right	tactile	NA	391.853935318	FALSE	FALSE	FALSE	FALSE	FALSE	0	FALSE	FALSE	TRUE
p05	2015	07	04	14	34	m	33	r	5.00336386904	2	133	1.413733327	1.02346084841	tactile	right	left	tactile	NA	348.375464207	FALSE	FALSE	FALSE	FALSE	FALSE	0	FALSE	FALSE	TRUE
p05	2015	07	04	14	34	m	33	r	5.00336386904	2	134	1.46824792796	1.26782019836	tactile	right	right	tactile	NA	432.440179284	FALSE	FALSE	FALSE	FALSE	TRUE	0	FALSE	TRUE	TRUE
p05	2015	07	04	14	34	m	33	r	5.00336386904	2	135	1.55619061296	0.855816661593	tactile	left	left	visual	NA	362.506497011	FALSE	FALSE	FALSE	FALSE	FALSE	0	FALSE	FALSE	TRUE
p05	2015	07	04	14	34	m	33	r	5.00336386904	2	136	1.72270886804	1.06941893942	tactile	right	left	tactile	NA	400.772927271	FALSE	FALSE	FALSE	FALSE	FALSE	0	FALSE	FALSE	TRUE
p05	2015	07	04	14	34	m	33	r	5.00336386904	2	137	1.52275487303	0.864380573025	visual	left	left	tactile	NA	396.039650659	FALSE	FALSE	FALSE	FALSE	TRUE	0	FALSE	TRUE	TRUE
p05	2015	07	04	14	34	m	33	r	5.00336386904	2	138	1.56386974698	1.0994573217	visual	right	right	tactile	NA	420.84988195	FALSE	FALSE	FALSE	FALSE	FALSE	0	FALSE	FALSE	TRUE
p05	2015	07	04	14	34	m	33	r	5.00336386904	2	139	1.60000892601	0.788272417898	tactile	left	catch	visual	NA	NA	FALSE	FALSE	FALSE	FALSE	FALSE	0	FALSE	FALSE	TRUE
p05	2015	07	04	14	34	m	33	r	5.00336386904	2	140	0.788606196991	1.31758266083	visual	right	left	tactile	NA	413.410820882	FALSE	FALSE	FALSE	FALSE	FALSE	0	FALSE	FALSE	TRUE
p05	2015	07	04	14	34	m	33	r	5.00336386904	2	141	1.29896263202	1.00088897544	visual	left	catch	visual	NA	NA	FALSE	FALSE	FALSE	FALSE	FALSE	0	FALSE	FALSE	TRUE
p05	2015	07	04	14	34	m	33	r	5.00336386904	2	142	1.00659850403	1.05808337575	tactile	left	left	tactile	NA	395.800741971	FALSE	FALSE	FALSE	FALSE	TRUE	0	FALSE	TRUE	TRUE
p05	2015	07	04	14	34	m	33	r	5.00336386904	2	143	1.27603101399	1.33352081156	visual	left	left	tactile	NA	407.446888043	FALSE	FALSE	FALSE	FALSE	FALSE	0	FALSE	FALSE	TRUE
p05	2015	07	04	14	34	m	33	r	5.00336386904	2	144	1.39894344704	0.763342481411	tactile	left	left	visual	NA	445.917983307	FALSE	FALSE	FALSE	FALSE	FALSE	0	FALSE	FALSE	TRUE
p05	2015	07	04	14	34	m	33	r	5.00336386904	2	145	1.636937264	0.783693813078	visual	right	left	visual	NA	411.65528557	FALSE	FALSE	FALSE	FALSE	TRUE	0	FALSE	FALSE	TRUE
p05	2015	07	04	14	34	m	33	r	5.00336386904	2	146	1.486891551	1.33539180431	tactile	left	right	tactile	NA	318.545606395	FALSE	FALSE	FALSE	FALSE	FALSE	0	FALSE	FALSE	TRUE
p05	2015	07	04	14	34	m	33	r	5.00336386904	2	147	1.442575744	0.938174639122	tactile	left	left	visual	NA	466.654301563	FALSE	FALSE	FALSE	FALSE	FALSE	0	FALSE	FALSE	TRUE
p05	2015	07	04	14	34	m	33	r	5.00336386904	2	148	1.55726566602	1.07235050032	tactile	right	right	visual	NA	399.047776358	FALSE	FALSE	FALSE	FALSE	FALSE	0	FALSE	FALSE	TRUE
p05	2015	07	04	14	34	m	33	r	5.00336386904	2	149	2.93723789597	0.963199241624	tactile	right	right	tactile	NA	418.672088068	FALSE	FALSE	FALSE	FALSE	FALSE	0	FALSE	FALSE	TRUE
p05	2015	07	04	14	34	m	33	r	5.00336386904	2	150	1.434695812	0.747984798031	tactile	left	right	tactile	NA	318.838438601	FALSE	FALSE	FALSE	FALSE	TRUE	0	FALSE	TRUE	TRUE
p05	2015	07	04	14	34	m	33	r	5.00336386904	2	151	1.46015256899	1.30042101598	tactile	right	right	tactile	NA	263.734114647	FALSE	FALSE	FALSE	FALSE	FALSE	0	FALSE	FALSE	TRUE
p05	2015	07	04	14	34	m	33	r	5.00336386904	2	152	1.52747105301	0.73741281416	tactile	left	left	visual	NA	440.162469517	FALSE	FALSE	FALSE	FALSE	FALSE	0	FALSE	FALSE	TRUE
p05	2015	07	04	14	34	m	33	r	5.00336386904	2	153	1.48047213198	1.08586848741	visual	left	right	tactile	NA	369.838319253	FALSE	FALSE	FALSE	FALSE	FALSE	0	FALSE	FALSE	TRUE
p05	2015	07	04	14	34	m	33	r	5.00336386904	2	154	1.71146008896	1.3028145172	tactile	left	left	tactile	NA	299.836153456	FALSE	FALSE	FALSE	FALSE	FALSE	0	FALSE	FALSE	TRUE
p05	2015	07	04	14	34	m	33	r	5.00336386904	2	155	1.937235752	0.518735251165	tactile	right	left	tactile	NA	434.267547505	FALSE	FALSE	FALSE	FALSE	FALSE	0	FALSE	FALSE	TRUE
p05	2015	07	04	14	34	m	33	r	5.00336386904	2	156	1.47524852003	0.994920816947	tactile	right	right	tactile	NA	349.496768671	FALSE	FALSE	FALSE	FALSE	FALSE	0	FALSE	FALSE	TRUE
p05	2015	07	04	14	34	m	33	r	5.00336386904	2	157	1.671642581	0.766927157942	visual	left	right	visual	NA	451.450155699	FALSE	FALSE	FALSE	FALSE	FALSE	0	FALSE	FALSE	TRUE
p05	2015	07	04	14	34	m	33	r	5.00336386904	2	158	1.50821055402	1.29680001149	visual	right	left	visual	NA	336.618103203	FALSE	FALSE	FALSE	FALSE	FALSE	0	FALSE	FALSE	TRUE
p05	2015	07	04	14	34	m	33	r	5.00336386904	2	159	1.60360382503	1.25407206718	tactile	right	left	visual	NA	422.60609247	FALSE	FALSE	FALSE	FALSE	TRUE	0	FALSE	FALSE	TRUE
p05	2015	07	04	14	34	m	33	r	5.00336386904	2	160	4.18705306802	1.25109414473	visual	left	catch	tactile	NA	NA	FALSE	FALSE	FALSE	FALSE	FALSE	0	FALSE	FALSE	TRUE
p05	2015	07	04	14	34	m	33	r	35.882143376	3	1	253.412252216	0.905257702555	tactile	left	right	visual	NA	537.339710107	FALSE	FALSE	FALSE	FALSE	FALSE	0	FALSE	FALSE	TRUE
p05	2015	07	04	14	34	m	33	r	35.882143376	3	2	1.30591062899	0.718391745854	tactile	right	left	tactile	NA	374.433494755	FALSE	FALSE	FALSE	FALSE	FALSE	0	FALSE	FALSE	TRUE
p05	2015	07	04	14	34	m	33	r	35.882143376	3	3	1.30057025701	1.03367455194	visual	left	right	tactile	NA	342.353480752	FALSE	FALSE	FALSE	FALSE	FALSE	0	FALSE	FALSE	TRUE
p05	2015	07	04	14	34	m	33	r	35.882143376	3	4	1.40668736503	0.791165771097	tactile	right	left	tactile	NA	295.538353617	FALSE	FALSE	FALSE	FALSE	FALSE	0	FALSE	FALSE	TRUE
p05	2015	07	04	14	34	m	33	r	35.882143376	3	5	1.36707559496	1.02311862165	visual	left	left	visual	NA	374.093193968	FALSE	FALSE	FALSE	FALSE	FALSE	0	FALSE	FALSE	TRUE
p05	2015	07	04	14	34	m	33	r	35.882143376	3	6	1.39400965697	1.34757004285	visual	left	left	tactile	NA	406.692704826	FALSE	FALSE	FALSE	FALSE	FALSE	0	FALSE	FALSE	TRUE
p05	2015	07	04	14	34	m	33	r	35.882143376	3	7	2.00683745701	1.34314444293	visual	right	left	visual	NA	408.821580699	FALSE	FALSE	FALSE	FALSE	FALSE	0	FALSE	FALSE	TRUE
p05	2015	07	04	14	34	m	33	r	35.882143376	3	8	1.62561677903	1.20102950397	tactile	left	right	tactile	NA	363.317623734	FALSE	FALSE	FALSE	FALSE	FALSE	0	FALSE	FALSE	TRUE
p05	2015	07	04	14	34	m	33	r	35.882143376	3	9	1.521816149	1.01806923575	tactile	left	left	tactile	NA	326.629726915	FALSE	FALSE	FALSE	FALSE	TRUE	0	FALSE	TRUE	TRUE
p05	2015	07	04	14	34	m	33	r	35.882143376	3	10	1.39406646905	0.785039247129	tactile	right	left	visual	NA	351.669274503	FALSE	FALSE	FALSE	FALSE	FALSE	0	FALSE	FALSE	TRUE
p05	2015	07	04	14	34	m	33	r	35.882143376	3	11	1.62667521602	0.574734630082	tactile	right	catch	visual	NA	361.802567553	FALSE	FALSE	FALSE	FALSE	FALSE	0	FALSE	FALSE	TRUE
p05	2015	07	04	14	34	m	33	r	35.882143376	3	12	1.601297507	1.27867281007	visual	left	right	tactile	NA	337.246311596	FALSE	FALSE	FALSE	FALSE	TRUE	0	FALSE	FALSE	TRUE
p05	2015	07	04	14	34	m	33	r	35.882143376	3	13	2.88411183597	1.38750204645	visual	left	right	visual	NA	389.723268163	FALSE	FALSE	FALSE	FALSE	FALSE	0	FALSE	FALSE	TRUE
p05	2015	07	04	14	34	m	33	r	35.882143376	3	14	1.35379132099	1.10477028417	tactile	right	right	visual	NA	293.288967514	FALSE	FALSE	FALSE	FALSE	FALSE	0	FALSE	FALSE	TRUE
p05	2015	07	04	14	34	m	33	r	35.882143376	3	15	1.52248783899	0.577421434704	tactile	right	left	tactile	NA	333.801757952	FALSE	FALSE	FALSE	FALSE	TRUE	0	FALSE	TRUE	TRUE
p05	2015	07	04	14	34	m	33	r	35.882143376	3	16	1.60350969597	1.42804540983	tactile	left	left	tactile	NA	246.096940769	FALSE	FALSE	FALSE	FALSE	FALSE	0	FALSE	FALSE	TRUE
p05	2015	07	04	14	34	m	33	r	35.882143376	3	17	1.69741748105	1.44497385417	tactile	right	right	tactile	NA	298.423160508	FALSE	FALSE	FALSE	FALSE	FALSE	0	FALSE	FALSE	TRUE
p05	2015	07	04	14	34	m	33	r	35.882143376	3	18	1.71699549304	0.784018062809	visual	left	right	visual	NA	351.954466838	FALSE	FALSE	FALSE	FALSE	FALSE	0	FALSE	FALSE	TRUE
p05	2015	07	04	14	34	m	33	r	35.882143376	3	19	1.569795007	0.708757784326	visual	right	right	tactile	NA	375.823366281	FALSE	FALSE	FALSE	FALSE	FALSE	0	FALSE	FALSE	TRUE
p05	2015	07	04	14	34	m	33	r	35.882143376	3	20	1.39944726496	1.17154816932	tactile	right	left	visual	NA	245.962295332	FALSE	FALSE	FALSE	FALSE	FALSE	0	FALSE	FALSE	TRUE
p05	2015	07	04	14	34	m	33	r	35.882143376	3	21	1.628602585	0.574540482013	tactile	right	right	visual	NA	385.565729637	FALSE	FALSE	FALSE	FALSE	TRUE	0	FALSE	TRUE	TRUE
p05	2015	07	04	14	34	m	33	r	35.882143376	3	22	1.69595121301	1.01299849311	visual	right	left	tactile	NA	334.150796523	FALSE	FALSE	FALSE	FALSE	FALSE	0	FALSE	FALSE	TRUE
p05	2015	07	04	14	34	m	33	r	35.882143376	3	23	1.48426142201	1.39878475338	tactile	right	right	tactile	NA	252.661364269	FALSE	FALSE	FALSE	FALSE	FALSE	0	FALSE	FALSE	TRUE
p05	2015	07	04	14	34	m	33	r	35.882143376	3	24	1.73978881101	0.775030606277	visual	right	right	tactile	NA	368.114642391	FALSE	FALSE	FALSE	FALSE	FALSE	0	FALSE	FALSE	TRUE
p05	2015	07	04	14	34	m	33	r	35.882143376	3	25	1.66983717895	1.00932748987	tactile	right	left	tactile	NA	199.199827795	FALSE	FALSE	FALSE	FALSE	FALSE	0	FALSE	FALSE	TRUE
p05	2015	07	04	14	34	m	33	r	35.882143376	3	26	1.34501097602	1.37266188818	tactile	left	right	visual	NA	116.988626483	FALSE	FALSE	FALSE	FALSE	FALSE	0	FALSE	FALSE	TRUE
p05	2015	07	04	14	34	m	33	r	35.882143376	3	27	1.69518554799	0.761055297061	tactile	left	left	visual	NA	258.01645458	FALSE	FALSE	FALSE	FALSE	FALSE	0	FALSE	FALSE	TRUE
p05	2015	07	04	14	34	m	33	r	35.882143376	3	28	1.57933778799	1.39543324756	visual	right	left	visual	NA	207.785852079	FALSE	FALSE	FALSE	FALSE	FALSE	0	FALSE	FALSE	TRUE
p05	2015	07	04	14	34	m	33	r	35.882143376	3	29	1.562964026	0.763077764627	tactile	left	left	visual	NA	338.799335994	FALSE	FALSE	FALSE	FALSE	FALSE	0	FALSE	FALSE	TRUE
p05	2015	07	04	14	34	m	33	r	35.882143376	3	30	1.463410692	0.923049959523	tactile	left	left	visual	NA	331.724537129	FALSE	FALSE	FALSE	FALSE	FALSE	0	FALSE	FALSE	TRUE
p05	2015	07	04	14	34	m	33	r	35.882143376	3	31	1.60553425399	1.21450136793	visual	left	left	visual	NA	354.75324071	FALSE	FALSE	FALSE	FALSE	TRUE	0	FALSE	FALSE	TRUE
p05	2015	07	04	14	34	m	33	r	35.882143376	3	32	3.81343562005	0.720529535289	tactile	right	right	tactile	NA	284.573583398	FALSE	FALSE	FALSE	FALSE	FALSE	0	FALSE	FALSE	TRUE
p05	2015	07	04	14	34	m	33	r	35.882143376	3	33	1.45945581899	0.986710379062	visual	left	right	tactile	NA	367.430501559	FALSE	FALSE	FALSE	FALSE	FALSE	0	FALSE	FALSE	TRUE
p05	2015	07	04	14	34	m	33	r	35.882143376	3	34	6.162980097	0.88879902625	tactile	right	right	visual	NA	261.657884403	FALSE	FALSE	FALSE	FALSE	FALSE	0	FALSE	FALSE	TRUE
p05	2015	07	04	14	34	m	33	r	35.882143376	3	35	1.61960914597	1.48969943495	visual	right	right	tactile	NA	248.212361708	FALSE	FALSE	FALSE	FALSE	FALSE	0	FALSE	FALSE	TRUE
p05	2015	07	04	14	34	m	33	r	35.882143376	3	36	1.45303122897	0.590579562119	tactile	right	catch	tactile	NA	NA	FALSE	FALSE	FALSE	FALSE	FALSE	0	FALSE	FALSE	TRUE
p05	2015	07	04	14	34	m	33	r	35.882143376	3	37	1.03132060898	1.2376812056	tactile	left	right	tactile	NA	394.516563101	FALSE	FALSE	FALSE	FALSE	FALSE	0	FALSE	FALSE	TRUE
p05	2015	07	04	14	34	m	33	r	35.882143376	3	38	1.73919214902	0.875737237032	visual	left	right	visual	NA	389.562736615	FALSE	FALSE	FALSE	FALSE	FALSE	0	FALSE	FALSE	TRUE
p05	2015	07	04	14	34	m	33	r	35.882143376	3	39	1.62562881899	1.47404604512	visual	left	left	visual	NA	349.73857156	FALSE	FALSE	FALSE	FALSE	TRUE	0	FALSE	FALSE	TRUE
p05	2015	07	04	14	34	m	33	r	35.882143376	3	40	1.65878293099	0.905497770119	visual	left	left	tactile	NA	519.080107508	FALSE	FALSE	FALSE	FALSE	FALSE	0	FALSE	FALSE	TRUE
p05	2015	07	04	14	34	m	33	r	4.58768188796	3	41	3.71376295603	1.43622567129	visual	right	right	visual	NA	410.019623407	FALSE	FALSE	FALSE	FALSE	FALSE	0	FALSE	FALSE	TRUE
p05	2015	07	04	14	34	m	33	r	4.58768188796	3	42	1.37542481604	0.866861118077	tactile	left	left	tactile	NA	389.021060604	FALSE	FALSE	FALSE	FALSE	FALSE	0	FALSE	FALSE	TRUE
p05	2015	07	04	14	34	m	33	r	4.58768188796	3	43	1.32108746201	1.28500888942	visual	left	right	tactile	NA	326.952883217	FALSE	FALSE	FALSE	FALSE	FALSE	0	FALSE	FALSE	TRUE
p05	2015	07	04	14	34	m	33	r	4.58768188796	3	44	1.13348353998	0.701437796815	tactile	left	left	visual	NA	391.662914888	FALSE	FALSE	FALSE	FALSE	FALSE	0	FALSE	FALSE	TRUE
p05	2015	07	04	14	34	m	33	r	4.58768188796	3	45	1.15126553801	1.25061158883	visual	right	left	visual	NA	368.013186846	FALSE	FALSE	FALSE	FALSE	FALSE	0	FALSE	FALSE	TRUE
p05	2015	07	04	14	34	m	33	r	4.58768188796	3	46	1.18930246402	0.945319025137	visual	right	right	visual	NA	277.308735531	FALSE	FALSE	FALSE	FALSE	TRUE	0	FALSE	FALSE	TRUE
p05	2015	07	04	14	34	m	33	r	4.58768188796	3	47	1.25693359895	0.606665098763	tactile	left	right	tactile	NA	290.970983915	FALSE	FALSE	FALSE	FALSE	TRUE	0	FALSE	FALSE	TRUE
p05	2015	07	04	14	34	m	33	r	4.58768188796	3	48	1.20127051201	1.44568848809	visual	left	left	tactile	NA	337.46561961	FALSE	FALSE	FALSE	FALSE	TRUE	0	FALSE	TRUE	TRUE
p05	2015	07	04	14	34	m	33	r	4.58768188796	3	49	1.16851180705	1.00652642641	tactile	right	left	visual	NA	253.438300279	FALSE	FALSE	FALSE	FALSE	FALSE	0	FALSE	FALSE	TRUE
p05	2015	07	04	14	34	m	33	r	4.58768188796	3	50	1.12808204896	1.15460030184	visual	right	right	tactile	NA	333.517423831	FALSE	FALSE	FALSE	FALSE	FALSE	0	FALSE	FALSE	TRUE
p05	2015	07	04	14	34	m	33	r	4.58768188796	3	51	1.208408684	0.702865479852	visual	right	catch	tactile	NA	751.277912816	FALSE	FALSE	FALSE	FALSE	FALSE	0	FALSE	FALSE	TRUE
p05	2015	07	04	14	34	m	33	r	4.58768188796	3	52	1.10372939904	1.13691256453	tactile	right	right	visual	NA	447.879633168	FALSE	FALSE	FALSE	FALSE	TRUE	0	FALSE	FALSE	TRUE
p05	2015	07	04	14	34	m	33	r	4.58768188796	3	53	1.20451485598	0.843816215264	tactile	right	right	tactile	NA	309.046295355	FALSE	FALSE	FALSE	TRUE	TRUE	0	TRUE	TRUE	TRUE
p05	2015	07	04	14	34	m	33	r	4.58768188796	3	54	5.67318940401	0.669156188191	visual	right	right	tactile	NA	322.215584456	FALSE	FALSE	FALSE	FALSE	FALSE	0	FALSE	FALSE	TRUE
p05	2015	07	04	14	34	m	33	r	4.58768188796	3	55	1.1708806	1.12727082315	visual	right	left	visual	NA	321.367790457	FALSE	FALSE	FALSE	TRUE	TRUE	0	FALSE	TRUE	TRUE
p05	2015	07	04	14	34	m	33	r	4.58768188796	3	56	1.18572059	1.18347336793	tactile	right	right	tactile	NA	291.591837711	FALSE	FALSE	FALSE	FALSE	FALSE	0	FALSE	FALSE	TRUE
p05	2015	07	04	14	34	m	33	r	4.58768188796	3	57	1.32874832	1.27605996681	visual	right	right	tactile	NA	341.59555583	FALSE	FALSE	FALSE	FALSE	FALSE	0	FALSE	FALSE	TRUE
p05	2015	07	04	14	34	m	33	r	4.58768188796	3	58	1.29636126198	0.516458685644	tactile	left	catch	visual	NA	NA	FALSE	FALSE	FALSE	FALSE	FALSE	0	FALSE	FALSE	TRUE
p05	2015	07	04	14	34	m	33	r	4.58768188796	3	59	1.032398257	0.688736838424	tactile	right	left	tactile	NA	297.414433269	FALSE	FALSE	FALSE	FALSE	FALSE	0	FALSE	FALSE	TRUE
p05	2015	07	04	14	34	m	33	r	4.58768188796	3	60	1.34717410803	1.23384420294	tactile	right	left	tactile	NA	354.044334672	FALSE	FALSE	FALSE	FALSE	TRUE	0	FALSE	TRUE	TRUE
p05	2015	07	04	14	34	m	33	r	4.58768188796	3	61	1.46595009102	1.3422575448	visual	right	catch	visual	NA	639.215559873	FALSE	FALSE	FALSE	FALSE	FALSE	0	FALSE	FALSE	TRUE
p05	2015	07	04	14	34	m	33	r	4.58768188796	3	62	1.15310125501	0.870969197664	visual	right	left	tactile	NA	392.856981023	FALSE	FALSE	FALSE	FALSE	FALSE	0	FALSE	FALSE	TRUE
p05	2015	07	04	14	34	m	33	r	4.58768188796	3	63	1.397701404	0.935167512147	visual	left	left	tactile	NA	456.610669498	FALSE	FALSE	FALSE	FALSE	FALSE	0	FALSE	FALSE	TRUE
p05	2015	07	04	14	34	m	33	r	4.58768188796	3	64	1.205647077	1.07058548771	tactile	right	right	tactile	NA	458.390851971	FALSE	FALSE	FALSE	FALSE	FALSE	0	FALSE	FALSE	TRUE
p05	2015	07	04	14	34	m	33	r	4.58768188796	3	65	4.35219785298	0.817242870615	visual	right	left	visual	NA	348.303192004	FALSE	FALSE	FALSE	FALSE	FALSE	0	FALSE	FALSE	TRUE
p05	2015	07	04	14	34	m	33	r	4.58768188796	3	66	1.46080418699	0.812455090352	visual	right	left	visual	NA	396.046322305	FALSE	FALSE	FALSE	FALSE	FALSE	0	FALSE	FALSE	TRUE
p05	2015	07	04	14	34	m	33	r	4.58768188796	3	67	1.64506621601	1.21731960461	tactile	left	right	tactile	NA	369.680247037	FALSE	FALSE	FALSE	FALSE	TRUE	0	FALSE	FALSE	TRUE
p05	2015	07	04	14	34	m	33	r	4.58768188796	3	68	1.38386092399	1.41737367586	tactile	left	right	visual	NA	480.856204755	FALSE	FALSE	FALSE	FALSE	TRUE	0	FALSE	FALSE	TRUE
p05	2015	07	04	14	34	m	33	r	4.58768188796	3	69	5.01490757801	1.02596865146	visual	right	left	tactile	NA	384.067769221	FALSE	FALSE	FALSE	FALSE	TRUE	0	FALSE	FALSE	TRUE
p05	2015	07	04	14	34	m	33	r	4.58768188796	3	70	1.28865198902	0.935786529291	visual	left	catch	tactile	NA	NA	FALSE	FALSE	FALSE	FALSE	FALSE	0	FALSE	FALSE	TRUE
p05	2015	07	04	14	34	m	33	r	4.58768188796	3	71	1.343393168	0.627110689269	visual	left	catch	tactile	NA	NA	FALSE	FALSE	FALSE	FALSE	TRUE	0	FALSE	TRUE	TRUE
p05	2015	07	04	14	34	m	33	r	4.58768188796	3	72	1.04461020703	1.28931625968	visual	right	right	visual	NA	463.080151996	FALSE	FALSE	FALSE	FALSE	TRUE	0	FALSE	TRUE	TRUE
p05	2015	07	04	14	34	m	33	r	4.58768188796	3	73	1.14789828903	0.902479689667	visual	left	right	visual	NA	455.735768017	FALSE	FALSE	FALSE	TRUE	TRUE	0	FALSE	FALSE	TRUE
p05	2015	07	04	14	34	m	33	r	4.58768188796	3	74	3.85366503801	1.14085747702	tactile	right	left	tactile	NA	348.716608656	FALSE	FALSE	FALSE	FALSE	TRUE	0	FALSE	TRUE	TRUE
p05	2015	07	04	14	34	m	33	r	4.58768188796	3	75	3.77925012697	0.937453433024	visual	left	right	visual	NA	374.601227697	FALSE	FALSE	FALSE	FALSE	FALSE	0	FALSE	FALSE	TRUE
p05	2015	07	04	14	34	m	33	r	4.58768188796	3	76	13.025011184	1.41851328576	visual	right	left	tactile	NA	365.922754921	FALSE	FALSE	FALSE	FALSE	FALSE	0	FALSE	FALSE	TRUE
p05	2015	07	04	14	34	m	33	r	4.58768188796	3	77	1.44224344299	1.34237098767	visual	right	right	visual	NA	487.403936975	FALSE	FALSE	FALSE	FALSE	TRUE	0	FALSE	TRUE	TRUE
p05	2015	07	04	14	34	m	33	r	4.58768188796	3	78	1.62162158702	0.870304196942	visual	left	right	visual	NA	486.762649729	FALSE	FALSE	FALSE	FALSE	TRUE	0	FALSE	TRUE	TRUE
p05	2015	07	04	14	34	m	33	r	4.58768188796	3	79	4.08108860702	1.24312793058	tactile	left	left	visual	NA	407.447476115	FALSE	FALSE	FALSE	FALSE	FALSE	0	FALSE	FALSE	TRUE
p05	2015	07	04	14	34	m	33	r	4.58768188796	3	80	1.470082669	0.651033071682	tactile	left	right	tactile	NA	329.694522952	FALSE	FALSE	FALSE	FALSE	FALSE	0	FALSE	FALSE	TRUE
p05	2015	07	04	14	34	m	33	r	6.90707568999	3	81	6.63357742399	1.39860563372	tactile	right	left	visual	NA	453.733077913	FALSE	FALSE	FALSE	FALSE	FALSE	0	FALSE	FALSE	TRUE
p05	2015	07	04	14	34	m	33	r	6.90707568999	3	82	1.334635409	1.27582311668	visual	left	left	tactile	NA	359.629796993	FALSE	FALSE	FALSE	FALSE	FALSE	0	FALSE	FALSE	TRUE
p05	2015	07	04	14	34	m	33	r	6.90707568999	3	83	1.44608433498	0.588427588094	tactile	right	right	visual	NA	468.016204541	FALSE	FALSE	FALSE	FALSE	FALSE	0	FALSE	FALSE	TRUE
p05	2015	07	04	14	34	m	33	r	6.90707568999	3	84	1.37947231397	1.48465473765	visual	left	right	tactile	NA	233.011468023	FALSE	FALSE	FALSE	FALSE	FALSE	0	FALSE	FALSE	TRUE
p05	2015	07	04	14	34	m	33	r	6.90707568999	3	85	1.28143610602	0.540906088521	tactile	left	right	visual	NA	386.742001108	FALSE	FALSE	FALSE	FALSE	FALSE	0	FALSE	FALSE	TRUE
p05	2015	07	04	14	34	m	33	r	6.90707568999	3	86	1.15062872297	1.07426613065	visual	right	right	visual	NA	366.978295031	FALSE	FALSE	FALSE	FALSE	FALSE	0	FALSE	FALSE	TRUE
p05	2015	07	04	14	34	m	33	r	6.90707568999	3	87	1.193942643	0.868814934218	tactile	left	right	tactile	NA	291.55941942	FALSE	FALSE	FALSE	FALSE	FALSE	0	FALSE	FALSE	TRUE
p05	2015	07	04	14	34	m	33	r	6.90707568999	3	88	1.368677722	1.06946608022	visual	left	catch	visual	NA	NA	FALSE	FALSE	FALSE	FALSE	FALSE	0	FALSE	FALSE	TRUE
p05	2015	07	04	14	34	m	33	r	6.90707568999	3	89	0.798423564003	1.22222734754	visual	right	catch	visual	NA	NA	FALSE	FALSE	FALSE	FALSE	TRUE	0	FALSE	FALSE	TRUE
p05	2015	07	04	14	34	m	33	r	6.90707568999	3	90	1.040163839	0.800222865321	tactile	right	right	tactile	NA	590.327060374	FALSE	FALSE	FALSE	FALSE	FALSE	0	FALSE	FALSE	TRUE
p05	2015	07	04	14	34	m	33	r	6.90707568999	3	91	1.20019018999	1.47601846665	tactile	left	right	visual	NA	316.711549007	FALSE	FALSE	FALSE	FALSE	FALSE	0	FALSE	FALSE	TRUE
p05	2015	07	04	14	34	m	33	r	6.90707568999	3	92	1.38163415296	1.46216170026	tactile	left	left	tactile	NA	403.45645143	FALSE	FALSE	FALSE	FALSE	FALSE	0	FALSE	FALSE	TRUE
p05	2015	07	04	14	34	m	33	r	6.90707568999	3	93	1.18867617298	1.2113172497	visual	left	right	visual	NA	405.907171953	FALSE	FALSE	FALSE	FALSE	TRUE	0	FALSE	FALSE	TRUE
p05	2015	07	04	14	34	m	33	r	6.90707568999	3	94	1.32681981998	0.726116093611	visual	left	right	tactile	NA	426.24446901	FALSE	FALSE	FALSE	FALSE	FALSE	0	FALSE	FALSE	TRUE
p05	2015	07	04	14	34	m	33	r	6.90707568999	3	95	1.17363525199	1.29048357525	visual	right	right	tactile	NA	441.450938408	FALSE	FALSE	FALSE	FALSE	FALSE	0	FALSE	FALSE	TRUE
p05	2015	07	04	14	34	m	33	r	6.90707568999	3	96	1.11633907503	1.19841521178	visual	right	left	visual	NA	520.437252882	FALSE	FALSE	FALSE	FALSE	FALSE	0	FALSE	FALSE	TRUE
p05	2015	07	04	14	34	m	33	r	6.90707568999	3	97	2.18293141801	0.83726902722	tactile	right	left	visual	NA	449.318048486	FALSE	FALSE	FALSE	FALSE	FALSE	0	FALSE	FALSE	TRUE
p05	2015	07	04	14	34	m	33	r	6.90707568999	3	98	1.82530560199	1.41431914461	tactile	left	right	tactile	NA	397.732868034	FALSE	FALSE	FALSE	FALSE	TRUE	0	FALSE	FALSE	TRUE
p05	2015	07	04	14	34	m	33	r	6.90707568999	3	99	1.34876834397	1.43489285257	tactile	left	left	visual	NA	484.098565124	FALSE	FALSE	FALSE	FALSE	FALSE	0	FALSE	FALSE	TRUE
p05	2015	07	04	14	34	m	33	r	6.90707568999	3	100	1.34967069904	0.51785107099	tactile	left	right	visual	NA	508.782882709	FALSE	FALSE	FALSE	FALSE	FALSE	0	FALSE	FALSE	TRUE
p05	2015	07	04	14	34	m	33	r	6.90707568999	3	101	1.148586797	1.47960557804	visual	right	right	visual	NA	411.215416563	FALSE	FALSE	FALSE	FALSE	FALSE	0	FALSE	FALSE	TRUE
p05	2015	07	04	14	34	m	33	r	6.90707568999	3	102	1.49342671398	1.1782463545	visual	left	right	tactile	NA	390.673788148	FALSE	FALSE	FALSE	FALSE	FALSE	0	FALSE	FALSE	TRUE
p05	2015	07	04	14	34	m	33	r	6.90707568999	3	103	1.357300704	1.29588035502	tactile	right	right	tactile	NA	450.117445667	FALSE	FALSE	FALSE	FALSE	FALSE	0	FALSE	FALSE	TRUE
p05	2015	07	04	14	34	m	33	r	6.90707568999	3	104	1.15423272498	0.900561700397	tactile	left	left	visual	NA	468.931311276	FALSE	FALSE	FALSE	FALSE	TRUE	0	FALSE	FALSE	TRUE
p05	2015	07	04	14	34	m	33	r	6.90707568999	3	105	1.25851938198	0.737285278765	tactile	right	left	visual	NA	479.075312905	FALSE	FALSE	FALSE	FALSE	FALSE	0	FALSE	FALSE	TRUE
p05	2015	07	04	14	34	m	33	r	6.90707568999	3	106	1.46430693101	1.30225332984	visual	right	left	tactile	NA	370.524733793	FALSE	FALSE	FALSE	FALSE	FALSE	0	FALSE	FALSE	TRUE
p05	2015	07	04	14	34	m	33	r	6.90707568999	3	107	1.30555583502	0.652454620728	tactile	left	catch	visual	NA	NA	FALSE	FALSE	FALSE	FALSE	TRUE	0	FALSE	TRUE	TRUE
p05	2015	07	04	14	34	m	33	r	6.90707568999	3	108	1.69851832197	0.597147469704	tactile	left	left	visual	NA	431.694222963	FALSE	FALSE	FALSE	FALSE	TRUE	0	FALSE	TRUE	TRUE
p05	2015	07	04	14	34	m	33	r	6.90707568999	3	109	1.59066772397	1.02577847896	visual	right	left	tactile	NA	300.047272758	FALSE	FALSE	FALSE	FALSE	FALSE	0	FALSE	FALSE	TRUE
p05	2015	07	04	14	34	m	33	r	6.90707568999	3	110	1.43225415098	0.729152985376	visual	right	left	visual	NA	341.174829286	FALSE	FALSE	FALSE	FALSE	FALSE	0	FALSE	FALSE	TRUE
p05	2015	07	04	14	34	m	33	r	6.90707568999	3	111	1.35269796004	1.1384444462	visual	right	right	tactile	NA	322.211029474	FALSE	FALSE	FALSE	FALSE	FALSE	0	FALSE	FALSE	TRUE
p05	2015	07	04	14	34	m	33	r	6.90707568999	3	112	1.322194201	0.533002606302	visual	left	right	visual	NA	432.496879366	FALSE	FALSE	FALSE	FALSE	FALSE	0	FALSE	FALSE	TRUE
p05	2015	07	04	14	34	m	33	r	6.90707568999	3	113	1.28498766501	0.62364382753	tactile	left	catch	tactile	NA	NA	FALSE	FALSE	FALSE	FALSE	FALSE	0	FALSE	FALSE	TRUE
p05	2015	07	04	14	34	m	33	r	6.90707568999	3	114	1.69127544999	1.1441748308	visual	left	left	visual	NA	332.133462827	FALSE	FALSE	FALSE	FALSE	FALSE	0	FALSE	FALSE	TRUE
p05	2015	07	04	14	34	m	33	r	6.90707568999	3	115	1.35273256898	0.74314063799	visual	right	left	tactile	NA	409.160653653	FALSE	FALSE	FALSE	FALSE	TRUE	0	FALSE	TRUE	TRUE
p05	2015	07	04	14	34	m	33	r	6.90707568999	3	116	1.13748864701	1.15542526655	tactile	right	left	tactile	NA	351.635948115	FALSE	FALSE	FALSE	FALSE	FALSE	0	FALSE	FALSE	TRUE
p05	2015	07	04	14	34	m	33	r	6.90707568999	3	117	1.28533657698	0.81297491121	visual	right	right	tactile	NA	403.551521478	FALSE	FALSE	FALSE	FALSE	FALSE	0	FALSE	FALSE	TRUE
p05	2015	07	04	14	34	m	33	r	6.90707568999	3	118	1.10510425601	0.571224082571	tactile	left	left	tactile	NA	303.262651083	FALSE	FALSE	FALSE	FALSE	TRUE	0	FALSE	TRUE	TRUE
p05	2015	07	04	14	34	m	33	r	6.90707568999	3	119	1.312669679	1.48448390918	tactile	right	left	visual	NA	339.605336427	FALSE	FALSE	FALSE	FALSE	TRUE	0	FALSE	TRUE	TRUE
p05	2015	07	04	14	34	m	33	r	6.90707568999	3	120	1.07877308497	0.803304382318	tactile	right	left	visual	NA	382.582828344	FALSE	FALSE	FALSE	FALSE	FALSE	0	FALSE	FALSE	TRUE
p05	2015	07	04	14	34	m	33	r	7.47087127599	3	121	9.54093155201	0.759777179945	tactile	left	right	visual	NA	457.196914707	FALSE	FALSE	FALSE	FALSE	TRUE	0	FALSE	TRUE	TRUE
p05	2015	07	04	14	34	m	33	r	7.47087127599	3	122	1.27350730402	1.00272150583	visual	left	left	visual	NA	430.484600889	FALSE	FALSE	FALSE	FALSE	FALSE	0	FALSE	FALSE	TRUE
p05	2015	07	04	14	34	m	33	r	7.47087127599	3	123	1.36757322901	1.16556650236	tactile	right	right	visual	NA	355.17200327	FALSE	FALSE	FALSE	FALSE	TRUE	0	FALSE	TRUE	TRUE
p05	2015	07	04	14	34	m	33	r	7.47087127599	3	124	1.65216961497	0.908889241331	visual	left	catch	visual	NA	NA	FALSE	FALSE	FALSE	FALSE	TRUE	0	FALSE	TRUE	TRUE
p05	2015	07	04	14	34	m	33	r	7.47087127599	3	125	0.672472129983	0.796577009953	visual	left	left	visual	NA	425.188708701	FALSE	FALSE	FALSE	FALSE	TRUE	0	FALSE	TRUE	TRUE
p05	2015	07	04	14	34	m	33	r	7.47087127599	3	126	1.59848092101	0.816377796869	tactile	right	right	visual	NA	770.76297981	FALSE	FALSE	FALSE	FALSE	TRUE	0	FALSE	TRUE	TRUE
p05	2015	07	04	14	34	m	33	r	7.47087127599	3	127	16.423222437	1.41576794982	tactile	left	right	visual	NA	437.631519802	FALSE	FALSE	FALSE	FALSE	FALSE	0	FALSE	FALSE	TRUE
p05	2015	07	04	14	34	m	33	r	7.47087127599	3	128	1.47618422	1.04474266975	tactile	left	left	visual	NA	485.009061929	FALSE	FALSE	FALSE	FALSE	FALSE	0	FALSE	FALSE	TRUE
p05	2015	07	04	14	34	m	33	r	7.47087127599	3	129	2.043116168	1.39201346264	tactile	right	catch	visual	NA	NA	FALSE	FALSE	FALSE	FALSE	FALSE	0	FALSE	FALSE	TRUE
p05	2015	07	04	14	34	m	33	r	7.47087127599	3	130	1.03330415499	0.562268124457	visual	left	right	tactile	NA	339.111728244	FALSE	FALSE	FALSE	FALSE	FALSE	0	FALSE	FALSE	TRUE
p05	2015	07	04	14	34	m	33	r	7.47087127599	3	131	1.35115292901	0.650677581564	tactile	right	left	visual	NA	357.547154126	FALSE	FALSE	FALSE	FALSE	TRUE	0	FALSE	FALSE	TRUE
p05	2015	07	04	14	34	m	33	r	7.47087127599	3	132	1.21104814095	0.99975750529	visual	left	left	visual	NA	350.880013313	FALSE	FALSE	FALSE	FALSE	TRUE	0	FALSE	TRUE	TRUE
p05	2015	07	04	14	34	m	33	r	7.47087127599	3	133	1.209094916	1.14663093806	visual	right	right	visual	NA	353.118927567	FALSE	FALSE	FALSE	FALSE	FALSE	0	FALSE	FALSE	TRUE
p05	2015	07	04	14	34	m	33	r	7.47087127599	3	134	1.41440163803	1.2840220084	visual	right	catch	tactile	NA	NA	FALSE	FALSE	FALSE	FALSE	TRUE	0	FALSE	TRUE	TRUE
p05	2015	07	04	14	34	m	33	r	7.47087127599	3	135	1.22905213002	1.31653107299	tactile	right	catch	tactile	NA	NA	FALSE	FALSE	FALSE	FALSE	FALSE	0	FALSE	FALSE	TRUE
p05	2015	07	04	14	34	m	33	r	7.47087127599	3	136	1.07270477002	0.847653866788	tactile	left	left	tactile	NA	345.791143831	FALSE	FALSE	FALSE	FALSE	FALSE	0	FALSE	FALSE	TRUE
p05	2015	07	04	14	34	m	33	r	7.47087127599	3	137	1.43597973196	1.13888667824	tactile	left	right	tactile	NA	354.3279554	FALSE	FALSE	FALSE	FALSE	FALSE	0	FALSE	FALSE	TRUE
p05	2015	07	04	14	34	m	33	r	7.47087127599	3	138	1.50045612303	1.22356993896	visual	right	left	visual	NA	383.935292659	FALSE	FALSE	FALSE	FALSE	TRUE	0	FALSE	TRUE	TRUE
p05	2015	07	04	14	34	m	33	r	7.47087127599	3	139	1.42522703501	1.24671284278	tactile	left	right	tactile	NA	348.192322883	FALSE	FALSE	FALSE	FALSE	TRUE	0	FALSE	TRUE	TRUE
p05	2015	07	04	14	34	m	33	r	7.47087127599	3	140	1.62745034898	1.11623162708	tactile	right	left	tactile	NA	558.826201595	FALSE	FALSE	FALSE	FALSE	TRUE	0	FALSE	TRUE	TRUE
p05	2015	07	04	14	34	m	33	r	7.47087127599	3	141	1.77583238203	0.920728558092	tactile	left	right	visual	NA	427.679283603	FALSE	FALSE	FALSE	FALSE	TRUE	0	FALSE	FALSE	TRUE
p05	2015	07	04	14	34	m	33	r	7.47087127599	3	142	1.55891929701	0.732128279307	tactile	right	right	visual	NA	580.298703338	FALSE	FALSE	FALSE	FALSE	TRUE	0	FALSE	TRUE	TRUE
p05	2015	07	04	14	34	m	33	r	7.47087127599	3	143	1.42857304297	1.12604112458	visual	left	left	tactile	NA	464.691557107	FALSE	FALSE	FALSE	FALSE	FALSE	0	FALSE	FALSE	TRUE
p05	2015	07	04	14	34	m	33	r	7.47087127599	3	144	1.832680527	0.56872116487	visual	left	left	visual	NA	643.018071773	FALSE	FALSE	FALSE	FALSE	TRUE	0	FALSE	TRUE	TRUE
p05	2015	07	04	14	34	m	33	r	7.47087127599	3	145	1.62713638303	1.17984686514	tactile	left	left	tactile	NA	382.382951502	FALSE	FALSE	FALSE	FALSE	FALSE	0	FALSE	FALSE	TRUE
p05	2015	07	04	14	34	m	33	r	7.47087127599	3	146	1.37068001	1.41650504074	tactile	left	left	tactile	NA	378.024914942	FALSE	FALSE	FALSE	FALSE	FALSE	0	FALSE	FALSE	TRUE
p05	2015	07	04	14	34	m	33	r	7.47087127599	3	147	2.09039262199	1.06482041186	tactile	right	right	visual	NA	422.587792797	FALSE	FALSE	FALSE	FALSE	FALSE	0	FALSE	FALSE	TRUE
p05	2015	07	04	14	34	m	33	r	7.47087127599	3	148	1.33351004496	1.08673004182	visual	left	left	visual	NA	388.265825808	FALSE	FALSE	FALSE	FALSE	FALSE	0	FALSE	FALSE	TRUE
p05	2015	07	04	14	34	m	33	r	7.47087127599	3	149	1.15098222997	0.624736834221	visual	left	left	tactile	NA	532.966012426	FALSE	FALSE	FALSE	FALSE	FALSE	0	FALSE	FALSE	TRUE
p05	2015	07	04	14	34	m	33	r	7.47087127599	3	150	1.36508822103	0.870941695567	visual	right	left	tactile	NA	506.931548123	FALSE	FALSE	FALSE	FALSE	TRUE	0	FALSE	TRUE	TRUE
p05	2015	07	04	14	34	m	33	r	7.47087127599	3	151	1.48306626803	0.83798231626	visual	left	right	tactile	NA	364.033108403	FALSE	FALSE	FALSE	FALSE	TRUE	0	FALSE	FALSE	TRUE
p05	2015	07	04	14	34	m	33	r	7.47087127599	3	152	1.396142877	1.03821114352	tactile	left	catch	tactile	NA	NA	FALSE	FALSE	FALSE	FALSE	TRUE	0	FALSE	FALSE	TRUE
p05	2015	07	04	14	34	m	33	r	7.47087127599	3	153	5.82634453196	1.18525956686	visual	left	right	visual	NA	577.105902834	FALSE	FALSE	FALSE	FALSE	TRUE	0	FALSE	FALSE	TRUE
p05	2015	07	04	14	34	m	33	r	7.47087127599	3	154	1.000049786	0.681901139971	visual	right	right	visual	NA	470.014451712	FALSE	FALSE	FALSE	FALSE	FALSE	0	FALSE	FALSE	TRUE
p05	2015	07	04	14	34	m	33	r	7.47087127599	3	155	1.18959658098	0.648407428842	tactile	right	right	tactile	NA	502.873656864	FALSE	FALSE	FALSE	FALSE	FALSE	0	FALSE	FALSE	TRUE
p05	2015	07	04	14	34	m	33	r	7.47087127599	3	156	1.08398224	1.10520512882	tactile	left	left	tactile	NA	411.411236855	FALSE	FALSE	FALSE	FALSE	TRUE	0	FALSE	FALSE	TRUE
p05	2015	07	04	14	34	m	33	r	7.47087127599	3	157	1.19868549297	1.1276023663	visual	right	right	visual	NA	364.66105032	FALSE	FALSE	FALSE	FALSE	FALSE	0	FALSE	FALSE	TRUE
p05	2015	07	04	14	34	m	33	r	7.47087127599	3	158	1.26110762899	0.775433054538	visual	right	left	tactile	NA	470.729719091	FALSE	FALSE	FALSE	FALSE	FALSE	0	FALSE	FALSE	TRUE
p05	2015	07	04	14	34	m	33	r	7.47087127599	3	159	2.34097374498	0.785444355482	visual	left	left	tactile	NA	456.705778197	FALSE	FALSE	FALSE	FALSE	TRUE	0	FALSE	TRUE	TRUE
p05	2015	07	04	14	34	m	33	r	7.47087127599	3	160	1.270145157	0.60658636759	visual	left	left	tactile	NA	381.118390069	FALSE	FALSE	FALSE	FALSE	TRUE	0	FALSE	TRUE	TRUE
p05	2015	07	04	14	34	m	33	r	29.749988252	4	1	2.27675031504	1.12986213124	visual	left	left	visual	NA	340.864012425	FALSE	FALSE	FALSE	FALSE	FALSE	0	FALSE	FALSE	TRUE
p05	2015	07	04	14	34	m	33	r	29.749988252	4	2	0.714121393044	1.14782314868	tactile	left	right	visual	NA	416.943399992	FALSE	FALSE	FALSE	FALSE	TRUE	0	FALSE	TRUE	TRUE
p05	2015	07	04	14	34	m	33	r	29.749988252	4	3	1.18911970401	1.39997267002	visual	left	right	visual	NA	482.539109653	FALSE	FALSE	FALSE	FALSE	FALSE	0	FALSE	FALSE	TRUE
p05	2015	07	04	14	34	m	33	r	29.749988252	4	4	1.05133611802	0.969710550517	tactile	right	left	tactile	NA	581.15673915	FALSE	FALSE	FALSE	FALSE	FALSE	0	FALSE	FALSE	TRUE
p05	2015	07	04	14	34	m	33	r	29.749988252	4	5	1.19342116796	1.06860218219	visual	left	catch	visual	NA	NA	FALSE	FALSE	FALSE	FALSE	FALSE	0	FALSE	FALSE	TRUE
p05	2015	07	04	14	34	m	33	r	29.749988252	4	6	0.532403847028	0.956342192941	visual	right	left	tactile	NA	344.991261722	FALSE	FALSE	FALSE	FALSE	FALSE	0	FALSE	FALSE	TRUE
p05	2015	07	04	14	34	m	33	r	29.749988252	4	7	1.04861206899	1.30899159175	visual	left	left	visual	NA	462.266725895	FALSE	FALSE	FALSE	FALSE	FALSE	0	FALSE	FALSE	TRUE
p05	2015	07	04	14	34	m	33	r	29.749988252	4	8	1.159959451	0.825308711267	tactile	right	catch	tactile	NA	NA	FALSE	FALSE	FALSE	FALSE	FALSE	0	FALSE	FALSE	TRUE
p05	2015	07	04	14	34	m	33	r	29.749988252	4	9	0.959661194996	0.973286349966	tactile	right	right	tactile	NA	467.027772742	FALSE	FALSE	FALSE	FALSE	FALSE	0	FALSE	FALSE	TRUE
p05	2015	07	04	14	34	m	33	r	29.749988252	4	10	1.26475449401	1.46579491905	visual	right	right	visual	NA	416.899016593	FALSE	FALSE	FALSE	FALSE	TRUE	0	FALSE	TRUE	TRUE
p05	2015	07	04	14	34	m	33	r	29.749988252	4	11	1.91650223901	0.860508973915	visual	left	right	visual	NA	455.718382727	FALSE	FALSE	FALSE	FALSE	FALSE	0	FALSE	FALSE	TRUE
p05	2015	07	04	14	34	m	33	r	29.749988252	4	12	1.194879852	1.03021299444	tactile	left	left	tactile	NA	441.063722246	FALSE	FALSE	FALSE	FALSE	FALSE	0	FALSE	FALSE	TRUE
p05	2015	07	04	14	34	m	33	r	29.749988252	4	13	1.178490513	0.649932976611	visual	left	left	tactile	NA	695.261008048	FALSE	FALSE	FALSE	FALSE	FALSE	0	FALSE	FALSE	TRUE
p05	2015	07	04	14	34	m	33	r	29.749988252	4	14	1.34070934798	1.1512504759	visual	left	left	visual	NA	462.018313759	FALSE	FALSE	FALSE	FALSE	FALSE	0	FALSE	FALSE	TRUE
p05	2015	07	04	14	34	m	33	r	29.749988252	4	15	1.25272354402	0.547388502681	visual	left	left	visual	NA	572.570616961	FALSE	FALSE	FALSE	FALSE	FALSE	0	FALSE	FALSE	TRUE
p05	2015	07	04	14	34	m	33	r	29.749988252	4	16	1.284860135	0.900379891839	visual	right	right	tactile	NA	425.080391753	FALSE	FALSE	FALSE	FALSE	FALSE	0	FALSE	FALSE	TRUE
p05	2015	07	04	14	34	m	33	r	29.749988252	4	17	2.69168258196	1.39434867135	visual	right	right	visual	NA	355.309022299	FALSE	FALSE	FALSE	FALSE	TRUE	0	FALSE	FALSE	TRUE
p05	2015	07	04	14	34	m	33	r	29.749988252	4	18	1.04526773299	1.15216877059	tactile	right	left	visual	NA	454.270047077	FALSE	FALSE	FALSE	FALSE	FALSE	0	FALSE	FALSE	TRUE
p05	2015	07	04	14	34	m	33	r	29.749988252	4	19	1.237523622	1.3829704764	tactile	right	right	visual	NA	435.522771266	FALSE	FALSE	FALSE	FALSE	TRUE	0	FALSE	TRUE	TRUE
p05	2015	07	04	14	34	m	33	r	29.749988252	4	20	1.25416260399	1.2298189462	tactile	right	left	tactile	NA	454.804985435	FALSE	FALSE	FALSE	FALSE	FALSE	0	FALSE	FALSE	TRUE
p05	2015	07	04	14	34	m	33	r	29.749988252	4	21	1.183551719	0.782403175373	visual	left	left	tactile	NA	496.89678225	FALSE	FALSE	FALSE	FALSE	TRUE	0	FALSE	TRUE	TRUE
p05	2015	07	04	14	34	m	33	r	29.749988252	4	22	1.23784517701	1.46441391797	tactile	right	left	tactile	NA	413.55342872	FALSE	FALSE	FALSE	FALSE	TRUE	0	FALSE	TRUE	TRUE
p05	2015	07	04	14	34	m	33	r	29.749988252	4	23	1.74821649602	0.932861660059	visual	left	right	tactile	NA	390.643490595	FALSE	FALSE	FALSE	FALSE	FALSE	0	FALSE	FALSE	TRUE
p05	2015	07	04	14	34	m	33	r	29.749988252	4	24	1.33941236301	1.32044786864	visual	left	catch	tactile	NA	NA	FALSE	FALSE	FALSE	FALSE	TRUE	0	FALSE	FALSE	TRUE
p05	2015	07	04	14	34	m	33	r	29.749988252	4	25	0.802755488025	1.33536487664	tactile	left	left	tactile	NA	369.156369008	FALSE	FALSE	FALSE	FALSE	TRUE	0	FALSE	TRUE	TRUE
p05	2015	07	04	14	34	m	33	r	29.749988252	4	26	1.20992667595	0.595108958808	tactile	left	right	tactile	NA	425.784789841	FALSE	FALSE	FALSE	FALSE	FALSE	0	FALSE	FALSE	TRUE
p05	2015	07	04	14	34	m	33	r	29.749988252	4	27	1.16099112801	0.968359127592	tactile	left	left	visual	NA	450.876195042	FALSE	FALSE	FALSE	FALSE	FALSE	0	FALSE	FALSE	TRUE
p05	2015	07	04	14	34	m	33	r	29.749988252	4	28	3.18605491897	1.30818100152	tactile	left	left	visual	NA	482.205360197	FALSE	FALSE	FALSE	FALSE	TRUE	0	FALSE	TRUE	TRUE
p05	2015	07	04	14	34	m	33	r	29.749988252	4	29	1.44307369698	1.18497529533	visual	left	right	tactile	NA	458.133470383	FALSE	FALSE	FALSE	FALSE	TRUE	0	FALSE	TRUE	TRUE
p05	2015	07	04	14	34	m	33	r	29.749988252	4	30	1.13245739602	1.01469187702	tactile	left	right	tactile	NA	375.953767681	FALSE	FALSE	FALSE	FALSE	TRUE	0	FALSE	TRUE	TRUE
p05	2015	07	04	14	34	m	33	r	29.749988252	4	31	1.29625707603	1.07133062047	tactile	right	left	tactile	NA	389.048804238	FALSE	FALSE	FALSE	FALSE	FALSE	0	FALSE	FALSE	TRUE
p05	2015	07	04	14	34	m	33	r	29.749988252	4	32	1.69483212102	1.38660189066	visual	right	right	visual	NA	395.752309996	FALSE	FALSE	FALSE	FALSE	FALSE	0	FALSE	FALSE	TRUE
p05	2015	07	04	14	34	m	33	r	29.749988252	4	33	3.41715816897	0.8209830793	tactile	right	right	visual	NA	429.557905358	FALSE	FALSE	FALSE	FALSE	FALSE	0	FALSE	FALSE	TRUE
p05	2015	07	04	14	34	m	33	r	29.749988252	4	34	1.37312742596	1.33884794516	visual	right	right	visual	NA	330.009660509	FALSE	FALSE	FALSE	FALSE	FALSE	0	FALSE	FALSE	TRUE
p05	2015	07	04	14	34	m	33	r	29.749988252	4	35	1.442918416	1.35530745732	tactile	left	left	tactile	NA	373.090955312	FALSE	FALSE	FALSE	FALSE	FALSE	0	FALSE	FALSE	TRUE
p05	2015	07	04	14	34	m	33	r	29.749988252	4	36	1.44034136605	1.48367772188	tactile	right	left	visual	NA	448.528216803	FALSE	FALSE	FALSE	FALSE	FALSE	0	FALSE	FALSE	TRUE
p05	2015	07	04	14	34	m	33	r	29.749988252	4	37	1.43976701697	1.15179342294	visual	right	right	visual	NA	394.097905722	FALSE	FALSE	FALSE	FALSE	TRUE	0	FALSE	FALSE	TRUE
p05	2015	07	04	14	34	m	33	r	29.749988252	4	38	1.40407739097	0.857629515846	tactile	left	catch	visual	NA	NA	FALSE	FALSE	FALSE	FALSE	FALSE	0	FALSE	FALSE	TRUE
p05	2015	07	04	14	34	m	33	r	29.749988252	4	39	0.91832705203	1.37131358487	tactile	left	right	visual	NA	490.377456823	FALSE	FALSE	FALSE	FALSE	TRUE	0	FALSE	TRUE	TRUE
p05	2015	07	04	14	34	m	33	r	29.749988252	4	40	1.24635951302	1.49800944778	tactile	left	right	tactile	NA	420.326688909	FALSE	FALSE	FALSE	FALSE	FALSE	0	FALSE	FALSE	TRUE
p05	2015	07	04	14	34	m	33	r	7.18676451803	4	41	2.65046634304	1.02797830901	tactile	right	right	visual	NA	491.966523638	FALSE	FALSE	FALSE	FALSE	FALSE	0	FALSE	FALSE	TRUE
p05	2015	07	04	14	34	m	33	r	7.18676451803	4	42	1.11620724399	1.28797748942	tactile	right	right	visual	NA	458.172133251	FALSE	FALSE	FALSE	FALSE	TRUE	0	FALSE	TRUE	TRUE
p05	2015	07	04	14	34	m	33	r	7.18676451803	4	43	1.16046692	1.37650321621	visual	left	right	tactile	NA	404.632039426	FALSE	FALSE	FALSE	FALSE	TRUE	0	FALSE	FALSE	TRUE
p05	2015	07	04	14	34	m	33	r	7.18676451803	4	44	1.36954758002	1.29966662204	tactile	right	right	tactile	NA	426.466012665	FALSE	FALSE	FALSE	FALSE	TRUE	0	FALSE	FALSE	TRUE
p05	2015	07	04	14	34	m	33	r	7.18676451803	4	45	1.27256420004	1.35418049018	tactile	left	catch	tactile	NA	NA	FALSE	FALSE	FALSE	FALSE	TRUE	0	FALSE	FALSE	TRUE
p05	2015	07	04	14	34	m	33	r	7.18676451803	4	46	0.972083248023	0.687849688778	visual	left	left	tactile	NA	489.371957898	FALSE	FALSE	FALSE	FALSE	FALSE	0	FALSE	FALSE	TRUE
p05	2015	07	04	14	34	m	33	r	7.18676451803	4	47	1.41130846203	1.01893035388	tactile	left	right	visual	NA	624.495011813	FALSE	FALSE	FALSE	FALSE	TRUE	0	FALSE	TRUE	TRUE
p05	2015	07	04	14	34	m	33	r	7.18676451803	4	48	1.39077532	1.22510491145	tactile	left	left	tactile	NA	420.718802256	FALSE	FALSE	FALSE	FALSE	FALSE	0	FALSE	FALSE	TRUE
p05	2015	07	04	14	34	m	33	r	7.18676451803	4	49	1.12240425497	0.631080229736	visual	right	catch	tactile	NA	NA	FALSE	FALSE	FALSE	FALSE	TRUE	0	FALSE	TRUE	TRUE
p05	2015	07	04	14	34	m	33	r	7.18676451803	4	50	1.04707596201	0.846850311722	visual	right	left	visual	NA	550.764372922	FALSE	FALSE	FALSE	FALSE	FALSE	0	FALSE	FALSE	TRUE
p05	2015	07	04	14	34	m	33	r	7.18676451803	4	51	1.08664610703	0.961897894128	visual	right	left	visual	NA	472.791687527	FALSE	FALSE	FALSE	FALSE	TRUE	0	FALSE	FALSE	TRUE
p05	2015	07	04	14	34	m	33	r	7.18676451803	4	52	1.19330349303	1.42225244488	visual	left	left	tactile	NA	383.14874575	FALSE	FALSE	FALSE	FALSE	TRUE	0	FALSE	TRUE	TRUE
p05	2015	07	04	14	34	m	33	r	7.18676451803	4	53	1.21468845103	0.542946292301	tactile	right	right	visual	NA	423.981581291	FALSE	FALSE	FALSE	FALSE	FALSE	0	FALSE	FALSE	TRUE
p05	2015	07	04	14	34	m	33	r	7.18676451803	4	54	1.15937699698	1.05866098045	tactile	right	left	visual	NA	376.267919259	FALSE	FALSE	FALSE	FALSE	FALSE	0	FALSE	FALSE	TRUE
p05	2015	07	04	14	34	m	33	r	7.18676451803	4	55	1.11544556002	1.35711098708	visual	left	left	visual	NA	388.926882588	FALSE	FALSE	FALSE	FALSE	TRUE	0	FALSE	FALSE	TRUE
p05	2015	07	04	14	34	m	33	r	7.18676451803	4	56	1.15606172197	1.15050223186	visual	right	catch	visual	NA	NA	FALSE	FALSE	FALSE	FALSE	FALSE	0	FALSE	FALSE	TRUE
p05	2015	07	04	14	34	m	33	r	7.18676451803	4	57	1.50678800204	1.01050659985	tactile	left	right	tactile	NA	488.710274803	FALSE	FALSE	FALSE	FALSE	TRUE	0	FALSE	TRUE	TRUE
p05	2015	07	04	14	34	m	33	r	7.18676451803	4	58	1.44032258197	0.588568397513	visual	right	right	visual	NA	531.732389121	FALSE	FALSE	FALSE	FALSE	TRUE	0	FALSE	TRUE	TRUE
p05	2015	07	04	14	34	m	33	r	7.18676451803	4	59	1.216187226	1.28865433621	visual	left	left	tactile	NA	425.900213479	FALSE	FALSE	FALSE	FALSE	FALSE	0	FALSE	FALSE	TRUE
p05	2015	07	04	14	34	m	33	r	7.18676451803	4	60	1.38535973604	1.33462009314	tactile	left	right	tactile	NA	445.865386515	FALSE	FALSE	FALSE	FALSE	FALSE	0	FALSE	FALSE	TRUE
p05	2015	07	04	14	34	m	33	r	7.18676451803	4	61	1.43661653803	1.23908950385	visual	right	right	tactile	NA	386.768362834	FALSE	FALSE	FALSE	FALSE	FALSE	0	FALSE	FALSE	TRUE
p05	2015	07	04	14	34	m	33	r	7.18676451803	4	62	1.39173713	0.79304291715	tactile	right	left	tactile	NA	537.384493509	FALSE	FALSE	FALSE	FALSE	FALSE	0	FALSE	FALSE	TRUE
p05	2015	07	04	14	34	m	33	r	7.18676451803	4	63	1.42630681198	1.24780935579	visual	left	left	tactile	NA	372.726819885	FALSE	FALSE	FALSE	FALSE	FALSE	0	FALSE	FALSE	TRUE
p05	2015	07	04	14	34	m	33	r	7.18676451803	4	64	1.31222345599	1.00516950215	tactile	right	left	visual	NA	443.991177483	FALSE	FALSE	FALSE	FALSE	TRUE	0	FALSE	FALSE	TRUE
p05	2015	07	04	14	34	m	33	r	7.18676451803	4	65	1.49086836597	0.78830116577	visual	right	catch	visual	NA	NA	FALSE	FALSE	FALSE	FALSE	TRUE	0	FALSE	TRUE	TRUE
p05	2015	07	04	14	34	m	33	r	7.18676451803	4	66	3.76252159203	1.25197981707	visual	left	left	visual	NA	435.004068597	FALSE	FALSE	FALSE	FALSE	TRUE	0	FALSE	FALSE	TRUE
p05	2015	07	04	14	34	m	33	r	7.18676451803	4	67	1.46461786103	0.975106986818	tactile	right	left	tactile	NA	487.250956823	FALSE	FALSE	FALSE	FALSE	TRUE	0	FALSE	TRUE	TRUE
p05	2015	07	04	14	34	m	33	r	7.18676451803	4	68	1.58517766901	0.778297867152	visual	right	left	tactile	NA	649.417397508	FALSE	FALSE	FALSE	FALSE	TRUE	0	FALSE	TRUE	TRUE
